subj,trial,time,color,condition,correct,response,RT
118340,0,1.8141400014,green,congruent,correct,f,0.94419792571
118340,1,3.83582193989,green,incongruent,correct,f,0.794779131546
118340,2,5.85557022342,red,incongruent,correct,d,0.566761870308
118340,3,7.87547637374,blue,neutral,correct,j,0.674957802628
118340,4,9.89595468454,green,neutral,correct,f,1.1185144478
118340,5,11.9366698126,red,neutral,correct,d,0.581794203128
118340,6,13.958981085,green,congruent,correct,f,0.703731373847
118340,7,15.9811673439,green,congruent,correct,f,0.409247069219
118340,8,18.0015125346,yellow,neutral,correct,k,0.596967762744
118340,9,20.0220399121,red,incongruent,incorrect,f,0.80049305642
118340,10,22.0431612102,yellow,incongruent,correct,k,0.667433529539
118340,11,24.0635546142,yellow,neutral,correct,k,0.566923577106
118340,12,26.0837863115,yellow,neutral,correct,k,0.578554947031
118340,13,28.1048730495,red,congruent,correct,d,0.669515664653
118340,14,30.1260267742,yellow,incongruent,correct,k,0.648556926768
118340,15,32.1463467915,yellow,neutral,correct,k,0.516197133817
118340,16,34.168789904,red,incongruent,correct,d,0.733618972685
118340,17,36.1904522159,red,incongruent,correct,d,0.600047018706
118340,18,38.2111617802,blue,neutral,correct,j,0.723179283777
118340,19,40.2329994522,yellow,incongruent,correct,k,0.717404345516
118340,20,42.2548042708,red,incongruent,correct,d,0.583575964651
118340,21,44.2752066348,red,neutral,correct,d,0.49917994596
118340,22,46.2979714543,red,incongruent,correct,d,0.396374524906
118340,23,48.318307685,red,neutral,correct,d,0.64802956632
118340,24,50.3400890369,red,congruent,correct,d,0.610501214294
118340,25,52.3614164151,red,congruent,correct,d,0.429135299528
118340,26,54.3830975002,blue,congruent,correct,j,1.15924280255
118340,27,56.4033227975,yellow,congruent,correct,k,0.451048064897
118340,29,62.9082614684,yellow,incongruent,correct,k,0.650170581481
118340,30,64.9296865533,blue,congruent,correct,j,1.50897963433
118340,31,66.9515250786,yellow,incongruent,correct,k,0.686939892854
118340,32,68.9725217899,blue,neutral,correct,j,0.601876566936
118340,33,70.9943253285,red,incongruent,correct,d,0.772155112238
118340,34,73.0146628392,blue,incongruent,correct,j,0.863854390489
118340,35,75.034792563,yellow,congruent,correct,k,0.539621580479
118340,36,77.0553587672,green,neutral,correct,f,0.823059902345
118340,37,79.0762974518,blue,neutral,correct,j,1.02644396923
118340,38,81.0991100579,green,congruent,correct,f,0.65146295591
118340,39,83.1198716756,green,neutral,correct,f,0.390569293282
118340,40,85.1404178265,yellow,neutral,incorrect,j,0.530219972454
118340,41,87.1606533638,yellow,congruent,correct,k,0.477946434512
118340,42,89.1822516755,yellow,congruent,correct,k,0.376517014629
118340,43,91.2040594808,blue,congruent,correct,j,0.882504433073
118340,44,93.2264889399,green,congruent,correct,f,0.652216449889
118340,45,95.248454612,blue,congruent,correct,j,0.934021490364
118340,46,97.2702479106,yellow,incongruent,correct,k,0.560174558021
118340,47,99.2930208367,green,congruent,correct,f,1.06558725597
118340,48,101.313575521,blue,neutral,correct,j,0.693223844886
118340,49,103.333779911,yellow,neutral,correct,k,0.608815452855
118340,50,105.354380249,yellow,neutral,correct,k,0.876337387803
118340,51,107.375986241,red,congruent,correct,d,0.742576420329
118340,52,109.398789887,green,congruent,incorrect,j,0.84778184344
118340,53,111.421155346,blue,congruent,correct,j,0.489485644357
118340,54,113.443016911,yellow,incongruent,correct,k,0.419432891249
118340,55,115.463410315,blue,neutral,correct,j,0.847304403032
118340,56,117.486240842,green,congruent,correct,f,0.536495817811
118340,57,119.5073583,blue,congruent,correct,j,0.755360644573
118340,58,121.528005997,yellow,neutral,correct,k,0.542730276466
118340,59,123.549664896,blue,incongruent,correct,j,1.01675862764
118340,61,128.828616387,green,incongruent,correct,f,0.857928412101
118340,62,130.849703978,yellow,neutral,correct,k,0.597007869444
118340,63,132.872495251,green,congruent,correct,f,0.638007157766
118340,64,134.893666896,red,congruent,correct,d,0.664815500641
118340,65,136.916390755,green,congruent,correct,f,0.722087016176
118340,66,138.938393547,blue,congruent,correct,j,0.396090364666
118340,67,140.96143826,blue,incongruent,correct,j,0.709265671903
118340,68,142.982225478,red,neutral,correct,d,1.34428658713
118340,69,145.002752856,yellow,neutral,correct,k,0.747986984949
118340,70,147.02396418,red,incongruent,correct,d,1.09448072063
118340,71,149.044329424,red,neutral,correct,d,0.514132492062
118340,72,151.066431203,blue,congruent,correct,j,1.30801775618
118340,73,153.087705675,red,congruent,correct,d,0.726938646992
118340,74,155.108465159,green,neutral,correct,f,0.69002256215
118340,75,157.130102298,green,incongruent,correct,f,0.620516369505
118340,76,159.151707009,green,neutral,correct,f,0.678859672633
118340,77,161.174284095,green,congruent,correct,f,0.528419010916
118340,78,163.194895526,red,neutral,correct,d,0.619903248989
118340,79,165.218840933,red,incongruent,correct,d,0.644004389556
118340,80,167.239693005,blue,neutral,correct,j,1.32682865223
118340,81,169.260463582,yellow,neutral,correct,k,0.746017063269
118340,82,171.282854641,blue,congruent,correct,j,0.819640166097
118340,83,173.303654232,blue,neutral,correct,j,0.414914487395
118340,84,175.326197185,green,congruent,correct,f,0.616293219238
118340,85,177.346419069,yellow,congruent,correct,k,0.644082042949
118340,86,179.36735306,yellow,neutral,correct,k,0.895131643847
118340,88,184.216435385,red,congruent,correct,d,1.58230535024
118340,89,186.256712326,green,congruent,correct,f,1.01379457177
118340,90,188.276974316,blue,incongruent,correct,j,0.577614146227
118340,91,190.299031722,blue,congruent,correct,j,0.635676275779
118340,92,192.321473981,green,congruent,correct,f,1.36504436484
118340,93,194.341998799,green,neutral,correct,f,0.512769290901
118340,94,196.362725856,red,neutral,correct,d,0.667828196551
118340,95,198.383618461,red,neutral,correct,d,0.486913268833
118340,96,200.403612504,red,incongruent,correct,d,0.53106946651
118340,97,202.426471191,green,congruent,correct,f,0.9241816953
118340,98,204.447471742,blue,neutral,correct,j,1.06308912051
118340,99,206.468131813,red,neutral,correct,d,0.850373418987
118340,101,210.50433323,green,neutral,correct,f,0.59014023692
118340,102,212.526913303,yellow,incongruent,correct,k,0.471858749326
118340,104,216.634590408,red,congruent,correct,d,0.716059491038
118340,105,218.65679672,red,incongruent,correct,d,0.981743344419
118340,106,220.677912898,red,neutral,correct,d,0.480597743437
118340,107,222.699711317,yellow,incongruent,correct,k,0.570926140521
118340,108,224.720757522,yellow,neutral,correct,k,0.390028279486
118340,109,226.742661754,blue,congruent,correct,j,0.816005816319
118340,110,228.764535266,blue,congruent,correct,j,0.506018565131
118340,111,230.785910004,yellow,neutral,correct,k,0.468641253239
118340,113,236.299510442,yellow,neutral,correct,k,0.571049873965
118340,114,238.322270995,red,incongruent,correct,d,0.708260444379
118340,115,240.343002319,green,neutral,correct,f,0.863528416878
118340,116,242.365420258,yellow,incongruent,correct,k,0.665146594256
118340,118,246.410370484,red,congruent,correct,d,1.00414848354
118340,119,248.432201755,blue,incongruent,correct,j,1.04666883982
118340,120,250.454952922,blue,incongruent,correct,j,0.511622409918
118340,121,252.475662486,green,neutral,correct,f,0.730863557001
118340,122,254.496265383,green,incongruent,correct,f,0.582601030488
118340,123,256.517452388,red,neutral,correct,d,0.705086468341
118340,124,258.540018807,green,congruent,correct,f,0.602659927601
118340,125,260.560264158,yellow,congruent,correct,k,0.534405149359
118340,126,262.580680602,yellow,congruent,correct,k,0.434129863796
118340,127,264.601294166,red,neutral,correct,d,0.733231132355
118340,128,266.621981544,green,neutral,correct,f,0.632609819826
118340,129,268.644941777,yellow,incongruent,correct,k,0.529652931975
118340,130,270.666644196,yellow,congruent,correct,k,0.427918445152
118340,131,272.689461922,blue,incongruent,correct,j,0.917256462722
118340,132,274.710453513,yellow,neutral,correct,k,0.528090050633
118340,133,276.730825584,yellow,congruent,correct,k,0.507724806594
118340,134,278.752753709,yellow,incongruent,correct,k,0.389939532753
118340,135,280.774531648,yellow,incongruent,correct,k,0.528357570867
118340,136,282.79694276,green,congruent,correct,f,0.681806235138
118340,137,284.817885285,yellow,neutral,correct,k,0.804679513327
118340,138,286.838893516,blue,neutral,correct,j,0.767688761756
118340,139,288.860488414,red,congruent,correct,d,0.730192836432
118340,140,290.883861234,blue,incongruent,correct,j,1.45896145832
118340,141,292.904662105,blue,neutral,correct,j,0.446280487493
118340,142,294.926396951,blue,congruent,correct,j,0.456222682638
118340,143,296.949509504,yellow,incongruent,correct,k,0.657099227392
118340,144,298.971610002,blue,congruent,correct,j,0.555010606942
118340,145,300.99180714,yellow,congruent,correct,k,0.390811213489
118340,146,303.012823478,red,neutral,correct,d,0.690034935491
118340,147,305.034315549,yellow,incongruent,correct,k,0.748270291857
118340,148,307.054910767,blue,neutral,correct,j,0.679701913352
118340,149,309.075480811,yellow,congruent,incorrect,j,0.403439277601
118340,150,311.09794355,green,congruent,correct,f,0.764636385822
118340,153,318.19166267,green,congruent,correct,f,0.807075248704
118340,154,320.212273674,red,neutral,correct,d,0.898341886583
118340,155,322.234206067,blue,congruent,correct,j,0.556413061473
118340,156,324.254258564,green,incongruent,correct,f,0.568387045023
118340,157,326.277293037,blue,incongruent,correct,j,0.433646450045
118340,158,328.298330281,green,neutral,correct,f,0.508561500639
118340,159,330.319384166,red,neutral,correct,d,0.631595632294
118340,160,332.339827917,blue,incongruent,correct,j,0.8510914996
118340,161,334.361020468,red,neutral,incorrect,k,0.461617887246
118340,162,336.382373873,blue,incongruent,correct,j,0.744266448441
118340,163,338.403821571,blue,incongruent,incorrect,f,1.26677484099
118340,164,340.424088255,red,incongruent,correct,d,0.862821856274
118340,165,342.445174567,yellow,neutral,correct,k,0.617460153568
118340,166,344.466092771,yellow,neutral,correct,k,0.468555493171
118340,167,346.487898443,red,congruent,correct,d,0.750746240636
118340,168,348.509921288,red,congruent,correct,d,0.600888832756
118340,169,350.533527495,green,congruent,correct,f,0.929308099679
118340,170,352.554493913,blue,neutral,correct,j,0.828329240176
118340,171,354.57754204,green,congruent,correct,f,0.853456514946
118340,172,356.600304299,green,congruent,correct,f,0.574294676735
118340,173,358.62124341,red,neutral,correct,d,0.777737197008
118340,175,362.66416142,blue,neutral,correct,j,1.0224571925
118340,176,364.686601973,blue,congruent,correct,j,0.376031894215
118340,177,366.709546845,blue,incongruent,correct,j,0.401155755659
118340,178,368.731246704,yellow,incongruent,correct,k,0.971721789196
118340,179,370.751850882,green,neutral,correct,f,0.886800970067
118340,180,372.774204821,blue,congruent,correct,j,0.448443689333
118340,181,374.796110333,red,congruent,correct,d,0.746853330646
118340,182,376.81686939,red,neutral,correct,d,0.757799899991
118340,183,378.837723168,yellow,neutral,correct,k,0.689119734714
118340,184,380.858605959,yellow,neutral,correct,k,0.50821248701
118340,185,382.87886795,blue,incongruent,correct,j,0.919800678232
118340,186,384.900705195,blue,congruent,correct,j,0.625938027471
118340,188,390.431892849,green,incongruent,correct,f,1.03079426628
118340,189,392.453749721,red,incongruent,correct,d,1.31321328061
118340,190,394.474319765,yellow,neutral,correct,k,0.636350409681
118340,191,396.495214929,red,neutral,incorrect,k,0.439556215089
118340,192,398.516620388,red,congruent,correct,d,0.818061924743
118340,193,400.539719714,blue,incongruent,correct,j,0.923084734364
118340,194,402.562295946,yellow,incongruent,correct,k,0.644432336587
118340,195,404.583183004,yellow,neutral,correct,k,0.463565195576
118340,196,406.603809795,yellow,neutral,correct,k,0.394888870309
118340,197,408.626027628,green,incongruent,correct,f,0.740676472044
118340,198,410.647035432,yellow,congruent,correct,k,0.815628642675
118340,199,412.669941905,green,congruent,correct,f,0.504773977402
118340,200,414.690744483,red,neutral,correct,d,1.2519916817
118340,201,416.713269942,green,congruent,correct,f,1.46940242722
118340,202,418.735253961,blue,congruent,correct,j,0.983554119295
118340,203,420.756293339,yellow,neutral,correct,k,0.594363813856
118340,204,422.776550636,yellow,congruent,correct,k,0.574148329935
118340,205,424.797172307,red,neutral,correct,d,0.729881369502
118340,206,426.819949073,green,congruent,correct,f,0.850722432617
118340,207,428.841664718,red,congruent,correct,d,1.05304068526
118340,208,430.862000522,yellow,congruent,correct,k,0.680716954208
118340,209,432.883949981,red,incongruent,correct,d,1.23512980065
118340,210,434.907001947,blue,incongruent,correct,j,0.844014373557
118340,211,436.928114285,blue,neutral,correct,j,0.838597835602
118340,212,438.948962943,yellow,neutral,correct,k,0.482080411377
118340,213,440.969893521,red,neutral,correct,d,0.508812807522
118340,214,442.990856099,red,neutral,correct,d,0.552005164383
118340,215,445.012570037,red,congruent,correct,d,0.530312132534
118340,216,447.033304348,blue,neutral,correct,j,0.685392798201
118340,217,449.054304046,red,neutral,correct,d,0.632392646308
118340,218,451.074527637,yellow,congruent,correct,k,0.61220532241
118340,219,453.09718707,red,incongruent,correct,d,1.30959173085
118340,220,455.119658769,yellow,neutral,correct,k,0.663377632751
118340,221,457.141547641,yellow,incongruent,correct,k,0.657173467451
118340,222,459.162614752,green,neutral,correct,f,0.748181971787
118340,223,461.183733917,green,neutral,correct,f,0.50296960253
118340,224,463.204905562,red,congruent,correct,d,0.658089521574
118340,225,465.226535447,red,congruent,correct,d,0.524202687324
118340,226,467.24631573,yellow,congruent,correct,k,0.584436978723
118340,228,472.85558345,blue,congruent,correct,j,1.58325724438
118340,229,474.879106883,blue,incongruent,correct,j,0.583879751575
118340,230,476.901901996,red,incongruent,correct,d,0.832809670661
118340,231,478.922004413,yellow,congruent,correct,k,0.556730501747
118340,232,480.94503718,blue,congruent,correct,j,1.25409301683
118340,233,482.965511651,yellow,congruent,correct,k,0.545593638904
118340,234,484.986358602,green,neutral,correct,f,0.476639980065
118340,235,487.006847153,yellow,congruent,correct,k,0.567928377968
118340,236,489.027357037,red,incongruent,correct,d,0.739404150961
118340,237,491.048340521,yellow,neutral,correct,k,0.49439402188
118340,238,493.069702886,green,neutral,correct,f,0.441049976362
118340,239,495.090127864,red,incongruent,correct,d,0.75662827232
118340,240,497.111916895,red,congruent,correct,d,0.574906090587
118340,241,499.132980167,yellow,neutral,correct,k,0.569786512882
118340,242,501.153831811,green,neutral,correct,f,0.725063445381
118340,243,503.174984256,red,neutral,correct,d,0.624053439198
118340,244,505.197026301,blue,congruent,correct,j,0.74573247636
118340,245,507.218870373,red,congruent,correct,d,0.6280094959
118340,246,509.240816419,yellow,neutral,correct,k,0.510114141965
118340,247,511.261762783,red,neutral,correct,d,0.569210085727
118340,248,513.283416135,red,congruent,correct,d,0.531407386799
118340,249,515.306366128,yellow,incongruent,correct,k,0.716405944673
118340,251,520.576687852,green,neutral,correct,f,0.886174622872
118340,252,522.599200938,red,incongruent,correct,d,1.18358372999
118340,253,524.620543676,yellow,incongruent,correct,k,0.618193594186
118340,254,526.641458467,blue,neutral,correct,j,0.565373922451
118340,255,528.663284619,yellow,incongruent,correct,k,0.62381791899
118340,256,530.686803359,red,incongruent,correct,d,0.568326884975
118340,257,532.709691059,yellow,incongruent,correct,k,1.08910599603
118340,258,534.730375877,red,neutral,correct,d,0.620413542754
118340,259,536.751131094,green,neutral,correct,f,0.679918233531
118340,260,538.7737197,blue,congruent,correct,j,0.433230023023
118340,261,540.794261158,red,congruent,correct,d,0.572709182044
118340,262,542.81601819,red,congruent,correct,d,0.935100531286
118340,263,544.83591922,yellow,congruent,correct,k,0.467115918604
118340,264,546.856276784,red,neutral,correct,d,0.606519557565
118340,265,548.87911371,blue,incongruent,correct,j,0.791656782218
118340,266,550.899633408,red,neutral,correct,d,0.787138378357
118340,267,552.921797907,blue,congruent,correct,j,0.556997595304
118340,268,554.942087631,yellow,congruent,correct,k,0.633057820203
118340,269,556.962239968,blue,incongruent,correct,j,0.660566323684
118340,270,558.982561265,green,neutral,correct,f,0.432380102298
118340,271,561.003255469,blue,neutral,correct,j,0.683561969978
118340,272,563.026451649,red,incongruent,correct,d,1.14038369313
118340,273,565.048971562,blue,incongruent,correct,j,1.00611200522
118340,274,567.07005318,yellow,neutral,correct,k,1.16074509717
118340,275,569.090758051,green,incongruent,correct,f,0.900091221411
118340,276,571.112896523,blue,congruent,correct,j,0.50991403513
118340,277,573.134072008,yellow,congruent,correct,k,0.664720353896
118340,278,575.156515974,red,incongruent,correct,d,0.866307299249
118340,279,577.17931962,green,congruent,correct,f,0.619986449055
118340,280,579.200432384,green,neutral,correct,f,0.550498176424
118340,281,581.22235283,red,incongruent,correct,d,0.672483133858
118340,282,583.2425265,red,incongruent,correct,d,0.652308183307
118340,283,585.263828278,red,congruent,correct,d,0.503005442566
118340,284,587.286556405,green,congruent,correct,f,0.928574232385
118340,286,592.225390699,blue,neutral,correct,j,0.949439530188
118340,287,594.246415144,green,neutral,correct,f,0.480457796657
118340,288,596.266950201,red,incongruent,correct,d,0.972182162935
118340,289,598.289905741,green,congruent,correct,f,0.74096831229
118340,290,600.310415625,blue,neutral,correct,j,0.49657386374
118340,291,602.333404445,red,incongruent,correct,d,0.553479298971
118340,292,604.355092783,green,incongruent,correct,f,0.596097788664
118340,293,606.375959787,blue,neutral,correct,j,0.494925649
118340,294,608.396799485,yellow,neutral,correct,k,0.666136461768
118340,295,610.417101583,yellow,congruent,correct,k,0.597757523421
118340,296,612.43746384,yellow,congruent,correct,k,0.705581828763
118340,297,614.460588766,yellow,incongruent,correct,k,0.49047551187
118340,298,616.482154651,red,congruent,correct,d,0.692714831115
118340,299,618.502435842,yellow,congruent,correct,k,0.592558585646
118340,300,620.52344194,yellow,neutral,correct,k,0.443460645089
118340,301,622.543558437,yellow,congruent,correct,k,0.455289561847
118340,302,624.566430777,green,congruent,correct,f,0.672585533939
118340,303,626.587966368,red,congruent,correct,d,0.666932622451
118340,304,628.60915508,green,neutral,correct,f,0.981698544383
118340,305,630.62945931,red,incongruent,correct,d,0.929518873185
118340,306,632.650441515,green,neutral,correct,f,0.748437118666
118340,307,634.67246436,blue,congruent,correct,j,0.45440934776
118340,308,636.694722726,red,incongruent,correct,d,0.784382109341
118340,310,642.169467025,green,incongruent,correct,f,1.00542677796
118340,311,644.190872056,green,neutral,correct,f,0.488019189776
118340,312,646.213171382,blue,congruent,correct,j,0.657692294568
118340,313,648.236302282,green,congruent,correct,f,0.554570713233
118340,314,650.258666461,blue,incongruent,correct,j,0.692222884034
118340,316,654.301467991,blue,incongruent,correct,j,0.0254511150561
118340,317,656.32376177,blue,incongruent,correct,j,0.563103627181
118340,318,658.345730428,blue,congruent,correct,j,0.477487340795
118340,319,660.366487353,red,incongruent,correct,d,1.04846553469
118340,320,662.389387426,green,congruent,correct,f,0.833517511273
118340,321,664.410902537,blue,congruent,correct,j,0.572088381516
118340,322,666.432473542,green,incongruent,correct,f,0.486423881746
118340,323,668.454415321,blue,congruent,correct,j,0.592459598898
118340,324,670.475701739,green,neutral,correct,f,0.667275662745
118340,325,672.497715198,yellow,incongruent,correct,k,0.421208252767
118340,326,674.517943482,green,incongruent,correct,f,0.657184134128
118340,327,676.53888174,blue,neutral,correct,j,0.380089924343
118340,328,678.559511944,yellow,neutral,correct,k,0.695725393685
118340,329,680.58231175,red,incongruent,correct,d,0.608565852643
118340,330,682.602973101,blue,neutral,correct,j,0.523941140433
118340,331,684.623874666,green,neutral,correct,f,0.51901740289
118340,332,686.644329936,blue,incongruent,correct,j,0.930576580758
118340,333,688.665368461,red,neutral,correct,d,0.733552412625
118340,334,690.686149279,red,neutral,correct,d,0.488894710528
118340,335,692.709544285,blue,incongruent,correct,j,0.529398211751
118340,336,694.73460884,red,neutral,correct,d,0.648373459939
118340,337,696.756725979,blue,congruent,correct,j,0.450227157526
118340,338,698.779771545,green,congruent,correct,f,0.635433075564
118340,339,700.800536576,blue,neutral,correct,j,0.486642761934
118340,340,702.822119955,red,congruent,correct,d,0.656810800479
118340,341,704.842851706,green,neutral,correct,f,0.668050916735
118340,342,706.863513057,green,neutral,correct,f,0.471747389223
118340,343,708.883995208,blue,neutral,correct,j,0.483197425659
118340,344,710.904540079,yellow,neutral,correct,k,0.7028921198
118340,345,712.926485697,green,incongruent,correct,f,0.632761713292
118340,346,714.947345875,red,neutral,correct,d,0.819597499387
118340,347,716.970044561,green,congruent,correct,f,1.05319769873
118340,349,721.548831188,red,congruent,correct,d,0.79420099772
118340,350,723.571895528,red,incongruent,correct,d,0.595099814484
118340,351,725.592154105,yellow,congruent,correct,k,0.62279349145
118340,352,727.612943883,yellow,neutral,correct,k,0.474021097834
118340,353,729.63325494,red,incongruent,correct,d,1.23803028312
118340,354,731.653367171,red,incongruent,correct,d,0.481880304535
118340,355,733.674805483,yellow,incongruent,correct,k,0.732125638082
118340,356,735.695070886,green,incongruent,correct,f,0.631859312518
118340,357,737.717799013,green,congruent,correct,f,0.577195585873
118340,358,739.738781644,green,neutral,correct,f,0.444188112371
118340,359,741.761606197,green,congruent,correct,f,0.469524453998
118340,360,743.784379549,green,congruent,correct,f,0.54263171638
118340,361,745.80498074,green,neutral,correct,f,0.5059699251
118340,362,747.826828652,red,incongruent,correct,d,0.996146770049
118340,363,749.84790515,green,neutral,correct,f,0.639171958763
118340,364,751.868229008,yellow,congruent,correct,k,0.539096780027
118340,365,753.888845558,yellow,neutral,correct,k,0.566484536728
118340,366,755.909047389,red,incongruent,correct,d,1.13804129113
118340,367,757.931240048,red,incongruent,correct,d,0.827740866342
118340,368,759.951961559,yellow,neutral,correct,k,0.647204818953
118340,369,761.974524992,green,congruent,correct,f,0.720823228432
118340,370,763.997142611,green,congruent,correct,f,0.458064604216
118340,371,766.020140817,blue,incongruent,correct,j,0.72296381693
118340,372,768.041884196,yellow,incongruent,correct,k,0.653231490753
118340,373,770.064020535,blue,congruent,correct,j,0.56697093715
118340,374,772.085922633,yellow,incongruent,correct,k,0.577076545771
118340,375,774.108538119,red,incongruent,correct,d,1.01865900259
118340,376,776.130065178,yellow,neutral,correct,k,0.597100029532
118340,377,778.150720129,yellow,congruent,correct,k,0.480318703201
118340,378,780.173571135,blue,incongruent,correct,j,1.32146672766
118340,379,782.194125819,blue,neutral,correct,j,0.500876800746
118340,380,784.215785144,blue,incongruent,correct,j,0.495217062584
118340,381,786.235768521,yellow,congruent,correct,k,0.507242672851
118340,383,791.138574625,yellow,incongruent,correct,k,0.676399083866
118340,384,793.16013283,red,congruent,correct,d,0.622926611562
118340,385,795.180544154,yellow,neutral,correct,k,0.522629992643
118340,386,797.20324028,green,congruent,correct,f,0.788015605773
118340,387,799.223872618,green,incongruent,correct,f,0.575212437514
118340,388,801.246470184,green,congruent,correct,f,0.440563575947
118340,389,803.266296547,blue,incongruent,correct,j,0.932822982671
118340,390,805.286972405,green,neutral,correct,f,0.752350935341
118340,391,807.308024583,red,neutral,correct,d,0.651203542358
118340,392,809.329399321,red,congruent,correct,d,0.517649081725
118340,393,811.349443712,yellow,congruent,correct,k,0.577707586308
118340,394,813.370280849,green,neutral,correct,f,0.749128319258
118340,395,815.393695909,red,congruent,correct,d,1.10930441327
118340,396,817.415183288,yellow,incongruent,correct,k,0.704151214202
118340,397,819.436178719,green,neutral,correct,f,0.555114287032
118340,398,821.459209352,blue,incongruent,correct,j,0.659908829788
118340,399,823.480163396,blue,neutral,correct,j,0.654892078841
118340,400,825.50052096,green,incongruent,correct,f,0.586600180563
118340,401,827.521308605,blue,neutral,correct,j,0.80603076781
118340,402,829.542149156,green,neutral,correct,f,0.640948173612
118340,403,831.563211574,green,neutral,correct,f,0.492041379875
118340,404,833.586027593,green,congruent,correct,f,0.517038947874
118340,405,835.606732038,red,neutral,correct,d,0.624303466073
118340,406,837.627875949,yellow,neutral,correct,k,0.763185717915
118340,407,839.649520768,red,congruent,correct,d,1.55780740933
118340,408,841.669672678,blue,incongruent,correct,j,0.817390777513
118340,409,843.692519844,blue,incongruent,correct,j,0.506551898929
118340,410,845.714912183,blue,incongruent,correct,j,0.420360038705
118340,411,847.736083828,yellow,neutral,correct,k,0.558984157004
118340,412,849.757140273,green,neutral,correct,f,1.09799688363
118340,413,851.77734253,yellow,congruent,correct,k,0.661951284863
118340,414,853.798162601,yellow,congruent,correct,k,0.464912183386
118340,415,855.82084806,green,congruent,correct,f,0.650225194862
118340,416,857.843629947,yellow,incongruent,correct,k,0.451490091938
118340,417,859.864739725,blue,neutral,correct,j,0.686334452337
118340,418,861.885484276,yellow,neutral,correct,k,0.649615914335
118340,420,866.912751712,green,neutral,correct,f,0.790589687967
118340,421,868.932950556,red,incongruent,correct,d,1.01020416871
118340,422,870.954735321,blue,congruent,correct,j,0.620309435995
118340,423,872.976456513,yellow,incongruent,correct,k,0.486641481933
118340,424,874.997349971,green,neutral,correct,f,0.60994953382
118340,425,877.021516818,yellow,incongruent,correct,k,1.11364447031
118340,426,879.042206756,red,neutral,correct,d,0.88493686181
118340,427,881.06263984,green,incongruent,correct,f,0.928460738949
118340,428,883.0858181,blue,incongruent,correct,j,0.61727967341
118340,429,885.108011185,yellow,incongruent,correct,k,0.595052027777
118340,430,887.12928395,blue,neutral,correct,j,0.781781573787
118340,431,889.149476394,yellow,congruent,correct,k,0.617571086994
118340,432,891.170426172,red,incongruent,correct,d,0.484627186881
118340,433,893.19156155,green,neutral,correct,f,0.463769569084
118340,434,895.213785356,blue,congruent,correct,j,0.521321831533
118340,435,897.234717214,blue,neutral,correct,j,0.596370002233
118340,436,899.256277979,red,congruent,correct,d,0.638827211798
118340,437,901.278978798,green,congruent,correct,f,0.696127314033
118340,438,903.30113519,blue,incongruent,correct,j,1.34629960218
118340,439,905.321598994,red,incongruent,correct,d,0.749517439588
118340,440,907.343070586,green,incongruent,correct,f,0.632239046179
118340,441,909.364457698,yellow,neutral,correct,k,0.72266259
118340,442,911.386469876,blue,congruent,correct,j,0.508640860709
118340,443,913.407449094,green,neutral,correct,f,0.45566844217
118340,444,915.430188314,yellow,incongruent,correct,k,0.752919682491
118340,445,917.450744705,green,neutral,correct,f,0.732539931771
118340,446,919.470812988,blue,incongruent,correct,j,0.952320385979
118340,447,921.492836687,yellow,incongruent,correct,k,0.88229237956
118340,449,926.473045737,blue,incongruent,correct,j,0.782105840728
118340,450,928.495280209,green,incongruent,correct,f,0.471837415964
118340,451,930.515773027,blue,incongruent,correct,j,0.707475803712
118340,452,932.537275338,yellow,incongruent,correct,k,0.414102113369
118340,453,934.55827333,blue,neutral,correct,j,0.6491039139
118340,454,936.58259975,green,congruent,correct,f,0.576581185349
118340,455,938.602997421,green,neutral,correct,f,0.620154982535
118340,456,940.623821759,yellow,congruent,correct,k,0.567404004185
118340,457,942.645047164,red,congruent,correct,d,0.658150961623
118340,458,944.665655608,green,neutral,correct,f,1.06946992595
118340,459,946.688512161,blue,incongruent,correct,j,0.534911176459
118340,460,948.708607751,green,incongruent,correct,f,0.562589920075
118340,461,950.731246277,red,incongruent,correct,d,0.65197239635
118340,462,952.752106455,red,neutral,correct,d,0.535047283243
118340,463,954.772383379,blue,incongruent,correct,j,0.914823180654
118340,464,956.795337639,green,congruent,correct,f,0.652075223101
118340,465,958.816371897,red,neutral,correct,d,0.614805431302
118340,466,960.837414688,red,neutral,correct,d,0.593853520091
118340,467,962.857273052,yellow,congruent,correct,k,0.573908969731
118340,468,964.879350084,green,incongruent,correct,f,0.744116688315
118340,469,966.900822955,red,congruent,correct,d,0.818667791929
118340,471,971.940670243,red,congruent,correct,d,0.802515031479
118340,472,973.963321142,green,congruent,correct,f,0.539896780712
118340,473,975.984138653,green,neutral,correct,f,0.519351056508
118340,474,978.004162137,yellow,congruent,correct,k,0.626979095025
118340,475,980.025755329,green,incongruent,correct,f,0.621472530322
118340,476,982.046900947,yellow,incongruent,correct,k,0.504442030455
118340,477,984.067547364,yellow,neutral,correct,k,0.403665411126
118340,478,986.087805942,yellow,congruent,correct,k,0.543651023916
118340,479,988.108573106,blue,neutral,correct,j,0.858607239345
118340,480,990.12891403,yellow,congruent,correct,k,0.582480283716
118340,481,992.151435649,red,incongruent,correct,d,0.991729486275
118340,482,994.171615293,blue,incongruent,correct,j,0.763755745073
118340,483,996.19164987,yellow,congruent,correct,k,0.439817335311
118340,484,998.21439293,green,congruent,correct,f,0.576922518972
118340,485,1000.2370673,green,congruent,correct,f,0.634133447791
118340,486,1002.25827777,green,neutral,correct,f,0.517031694537
118340,487,1004.28126957,red,incongruent,correct,d,1.29390787747
118340,488,1006.30197658,blue,neutral,correct,j,0.649440980858
118340,489,1008.32377414,red,incongruent,correct,d,0.771777085247
118340,490,1010.34453789,blue,neutral,correct,j,0.478684568479
118340,491,1012.36688629,red,congruent,correct,d,0.536580297878
118340,492,1014.3872703,red,incongruent,correct,d,0.563929227887
118340,493,1016.40799352,blue,neutral,correct,j,0.527434263407
118340,494,1018.43109157,yellow,incongruent,correct,k,0.584102045097
118340,495,1020.45145553,green,incongruent,correct,f,0.499892479907
118340,496,1022.47341694,blue,neutral,correct,j,1.02202839213
118340,497,1024.49664341,blue,congruent,correct,j,0.438556960908
118340,498,1026.51854124,red,congruent,correct,d,0.608634119366
118340,499,1028.54023342,red,congruent,correct,d,0.763052597809
118340,500,1030.56111067,yellow,neutral,correct,k,0.742338766795
118340,501,1032.58310364,yellow,incongruent,correct,k,0.4162149685
118340,502,1034.60431241,blue,neutral,correct,j,0.731263770678
118340,503,1036.62554507,yellow,neutral,correct,k,0.566015203003
118340,504,1038.64797197,red,incongruent,correct,d,1.48731604251
118340,506,1043.8382484,yellow,incongruent,correct,k,0.681256688003
118340,507,1045.85900873,red,neutral,correct,d,1.09224114538
118340,508,1047.87976438,yellow,neutral,correct,k,0.559448370732
118340,509,1049.90072013,blue,neutral,correct,j,0.826509078623
118340,510,1051.92144847,blue,neutral,correct,j,0.741801166332
118340,511,1053.94337702,green,incongruent,correct,f,0.752190508538
118340,512,1055.96559357,blue,congruent,correct,j,0.681630448322
118340,513,1057.98633898,yellow,neutral,correct,k,0.628897389994
118340,514,1060.00839553,blue,congruent,correct,j,0.910814643896
118340,515,1062.02905432,green,incongruent,correct,f,0.794179664372
118340,516,1064.04982234,red,neutral,correct,d,0.981494597538
118340,517,1066.07147483,green,incongruent,correct,f,0.751960961679
118340,518,1068.09375539,blue,congruent,correct,j,0.457467270375
118340,519,1070.11639861,green,congruent,correct,f,0.418828730733
118340,520,1072.1386271,blue,incongruent,correct,j,0.860616841062
118340,521,1074.15934478,yellow,neutral,correct,k,0.823904276396
118340,522,1076.18166885,blue,congruent,correct,j,0.68959461512
118340,523,1078.20279527,red,neutral,correct,d,0.92446585554
118340,524,1080.22491497,green,incongruent,correct,f,0.678569965712
118340,526,1085.27614274,yellow,congruent,correct,k,0.891496440738
118340,527,1087.29777732,red,incongruent,correct,d,0.6614823778
118340,528,1089.31929798,red,congruent,correct,d,0.608340999119
118340,529,1091.33994056,green,neutral,correct,f,0.683553863302
118340,530,1093.36288543,yellow,incongruent,correct,k,0.580401561943
118340,531,1095.38617249,red,incongruent,correct,d,0.621348796885
118340,532,1097.40723277,red,neutral,correct,d,0.64839137996
118340,533,1099.43001807,green,congruent,correct,f,0.593271546262
118340,534,1101.45053265,blue,incongruent,correct,j,1.02101335126
118340,535,1103.47113128,blue,incongruent,correct,j,0.536495817811
118340,536,1105.49170858,blue,incongruent,correct,j,0.467600185686
118340,537,1107.5125406,red,neutral,correct,d,0.894799696893
118340,538,1109.53311448,green,incongruent,correct,f,0.682342128937
118340,539,1111.55464239,red,congruent,correct,d,0.676971671019
118340,540,1113.57482033,blue,incongruent,correct,j,0.576784705525
118340,541,1115.59727966,green,congruent,correct,f,0.650293034916
118340,542,1117.61930976,blue,congruent,correct,j,0.708120497591
118340,543,1119.64085473,red,congruent,correct,d,0.590506317232
118340,544,1121.66137955,blue,incongruent,correct,j,0.697969662266
118340,545,1123.68217957,blue,neutral,correct,j,0.517429774867
118340,546,1125.70445585,green,congruent,correct,f,0.654821252116
118340,547,1127.72727187,green,congruent,correct,f,0.440331042417
118340,548,1129.74910997,green,incongruent,correct,f,0.450408917684
118340,549,1131.77180823,green,incongruent,correct,f,0.587511541344
118340,551,1136.43282085,blue,incongruent,correct,j,1.17476324247
118340,552,1138.45471655,yellow,incongruent,correct,k,0.448892116394
118340,553,1140.47529086,yellow,neutral,correct,k,0.508011100166
118340,554,1142.49635882,red,congruent,correct,d,0.711172873533
118340,555,1144.51966508,yellow,incongruent,correct,k,0.831606896303
118340,556,1146.54170884,green,incongruent,correct,f,0.71370172903
118340,557,1148.56398384,yellow,incongruent,correct,k,0.563322080699
118340,558,1150.58435847,green,incongruent,correct,f,0.719043600257
118340,559,1152.6064466,red,congruent,correct,d,0.552922498493
118340,560,1154.6284767,blue,congruent,correct,j,0.659072562412
118340,561,1156.64869431,blue,incongruent,correct,j,0.638635211639
118340,562,1158.67051407,red,congruent,correct,d,0.793024250044
118340,563,1160.69264955,red,congruent,correct,d,0.482706758579
118340,564,1162.71319314,blue,incongruent,correct,j,0.670131345178
118340,565,1164.73464553,blue,incongruent,correct,j,0.632888860069
118340,566,1166.75743723,green,congruent,correct,f,0.641924814438
118340,567,1168.77855256,red,neutral,correct,d,0.764838199328
118340,568,1170.79941615,blue,neutral,correct,j,0.888119371193
118340,569,1172.82131142,red,incongruent,correct,d,1.13798411775
118340,570,1174.84434419,green,congruent,correct,f,0.827013825721
118340,571,1176.86522143,green,neutral,correct,f,0.470141841186
118340,573,1181.94616059,yellow,neutral,correct,k,0.749193599309
118340,574,1183.96622674,red,incongruent,correct,d,0.793203876863
118340,575,1185.98899199,blue,incongruent,correct,j,1.17039801207
118340,576,1188.01193302,blue,incongruent,correct,j,0.459551112152
118340,577,1190.03418926,green,congruent,correct,f,0.517420814867
118340,578,1192.05576837,green,neutral,correct,f,0.479563502558
118340,579,1194.07789361,yellow,incongruent,correct,k,0.713494368843
118340,580,1196.09804638,blue,incongruent,correct,j,1.07729798596
118340,581,1198.11972405,red,congruent,correct,d,0.671646013143
118340,582,1200.14255543,green,congruent,correct,f,0.872823358142
118340,583,1202.16511118,blue,incongruent,correct,j,0.722244456316
118340,584,1204.18620987,blue,neutral,correct,j,1.54954158895
118340,585,1206.20680252,yellow,congruent,correct,k,0.600514645776
118340,586,1208.23027177,green,congruent,correct,f,0.593272826263
118340,587,1210.25185557,red,congruent,correct,d,0.667676729747
118340,588,1212.27259074,yellow,neutral,correct,k,0.534767816338
118340,589,1214.29444718,blue,incongruent,correct,j,0.529315011685
118340,590,1216.31468784,yellow,congruent,correct,k,0.508691207418
118340,591,1218.33483677,yellow,congruent,correct,k,0.552753538352
118340,592,1220.35666633,green,incongruent,correct,f,0.610715401141
118340,593,1222.3779199,red,neutral,correct,d,0.637439263948
118340,594,1224.39866786,yellow,neutral,correct,k,0.440811042827
118340,595,1226.42087972,blue,congruent,correct,j,0.578731587186
118340,596,1228.44212646,green,incongruent,correct,f,0.653301037484
118340,597,1230.46541309,red,incongruent,correct,d,0.678063511943
118340,598,1232.48553129,yellow,congruent,correct,k,0.5301222657
120554,0,1.81293424037,green,incongruent,correct,f,1.47413587126
120554,1,3.83382087153,red,incongruent,correct,d,0.57304326233
120554,2,5.85479880943,yellow,incongruent,incorrect,j,0.600403712345
120554,3,7.87740192205,red,congruent,correct,d,0.705474308671
120554,4,9.89749281919,blue,neutral,correct,j,1.02137473824
120554,5,11.9286770591,red,congruent,correct,d,0.574171796627
120554,6,13.9498700372,blue,congruent,correct,j,1.09734664307
120554,7,15.9699225343,green,neutral,correct,f,0.613284790003
120554,8,17.9900339115,green,neutral,correct,f,0.465063223521
120554,9,20.0110165427,green,congruent,correct,f,0.58798044841
120554,10,22.03122264,red,neutral,correct,d,0.599925418603
120554,11,24.0520597778,green,congruent,correct,f,0.562993973755
120554,12,26.072705342,red,congruent,correct,d,0.542293369424
120554,13,28.0935548532,red,congruent,correct,d,0.473334590579
120554,14,30.114479031,red,incongruent,correct,d,0.468456079749
120554,15,32.1358221959,green,incongruent,correct,f,0.575160384137
120554,16,34.1566286137,yellow,incongruent,correct,k,0.682377115628
120554,17,36.1766469774,yellow,neutral,correct,k,0.550402176343
120554,18,38.197652222,blue,congruent,correct,j,0.577250199254
120554,19,40.2190593869,yellow,congruent,correct,k,0.603838808609
120554,20,42.2391882574,green,neutral,correct,f,0.663705313028
120554,21,44.2600736086,blue,incongruent,correct,j,1.01086891594
120554,22,46.2811872266,yellow,incongruent,correct,k,0.637903051011
120554,23,48.3012892171,blue,neutral,correct,j,0.489785164617
120554,24,50.322286355,blue,incongruent,correct,j,0.628619629755
120554,25,52.3436192799,red,incongruent,correct,d,0.76728086808
120554,27,58.1970638482,blue,congruent,correct,j,1.00991574179
120554,28,60.2182329329,green,incongruent,correct,f,0.828666733795
120554,29,62.239455351,yellow,congruent,correct,k,0.679454873135
120554,30,64.2597864617,yellow,neutral,correct,k,0.499263572705
120554,31,66.2809397597,yellow,incongruent,correct,k,0.446124754026
120554,32,68.3020397244,yellow,congruent,correct,k,0.456884016541
120554,33,70.3221664616,green,neutral,correct,f,0.564720695229
120554,34,72.3430385861,red,congruent,correct,d,0.496101970007
120554,35,74.3644530043,yellow,congruent,correct,k,0.602473474111
120554,36,76.3853537155,blue,incongruent,correct,j,0.741590392824
120554,37,78.4056912262,red,neutral,incorrect,f,0.657566854457
120554,38,80.4258853768,yellow,neutral,correct,k,0.605193903099
120554,39,82.4466768612,green,congruent,correct,f,0.696271527485
120554,40,84.4677183725,yellow,incongruent,correct,k,1.25122453438
120554,41,86.4882338033,blue,neutral,correct,j,0.76670742759
120554,42,88.5093807013,blue,incongruent,correct,j,0.825516651108
120554,43,90.5303142659,red,congruent,correct,d,0.628693869819
120554,44,92.5511083103,yellow,neutral,correct,k,0.672183613597
120554,45,94.5720657682,red,incongruent,correct,d,0.602911661151
120554,46,96.5929127193,red,neutral,correct,d,0.678232045425
120554,47,98.6136495903,yellow,congruent,correct,k,0.673573694783
120554,48,100.634726942,green,incongruent,correct,f,0.652553516846
120554,49,102.655887493,red,incongruent,correct,d,0.647344765734
120554,50,104.676893164,yellow,congruent,correct,k,0.610053213912
120554,51,106.698584063,yellow,congruent,correct,k,0.41266765881
120554,52,108.719606801,yellow,congruent,correct,k,0.375345386961
120554,53,110.740559565,green,congruent,correct,f,0.578417133583
120554,54,112.76219329,blue,congruent,correct,j,0.684762610997
120554,55,114.782136987,red,incongruent,correct,d,0.5369139515
120554,56,116.803006552,blue,incongruent,correct,j,0.724001897815
120554,57,118.824000276,blue,incongruent,correct,j,0.575157824135
120554,58,120.845166801,red,congruent,correct,d,0.569840699597
120554,59,122.866249273,blue,congruent,correct,j,0.645033083762
120554,60,124.887352224,blue,congruent,correct,j,0.687614026764
120554,61,126.907814748,blue,neutral,correct,j,0.491143245775
120554,63,135.315814243,yellow,incongruent,correct,k,0.979170968893
120554,64,137.336967541,blue,congruent,correct,j,0.62201183745
120554,65,139.357010225,yellow,neutral,correct,k,0.585978526702
120554,66,141.378085016,blue,incongruent,correct,j,0.725089898743
120554,67,143.399245141,yellow,congruent,correct,k,0.57598470484
120554,68,145.420324199,blue,incongruent,correct,j,0.410650803756
120554,69,147.44127739,green,incongruent,correct,f,0.485798387881
120554,70,149.462656395,red,incongruent,correct,d,0.41635491529
120554,71,151.482872305,red,neutral,correct,d,0.39613687137
120554,72,153.504446724,yellow,congruent,correct,k,0.662551605377
120554,73,155.525416555,yellow,congruent,correct,k,0.449730090436
120554,74,157.546351826,red,incongruent,incorrect,f,0.652738690337
120554,75,159.566914617,red,neutral,incorrect,f,0.808326236438
120554,76,161.587305035,blue,neutral,correct,j,0.899715327757
120554,77,163.608470279,yellow,congruent,correct,k,1.00654976559
120554,78,165.629266884,green,neutral,correct,f,0.730112196362
120554,79,167.650328022,yellow,incongruent,correct,k,0.868682554609
120554,80,169.671737747,red,congruent,correct,d,0.63935585225
120554,81,171.692966991,green,incongruent,correct,f,0.794054650926
120554,82,173.714372876,yellow,incongruent,correct,k,0.676620950717
120554,84,178.905451013,red,incongruent,correct,d,1.30963482422
120554,85,180.925872577,green,incongruent,correct,f,0.569325285824
120554,86,182.946309501,blue,neutral,correct,j,0.70893031162
120554,87,184.967177359,yellow,congruent,correct,k,0.383843314213
120554,88,186.98776063,red,neutral,correct,d,0.619502181975
120554,89,189.009183581,yellow,incongruent,correct,k,0.982125638081
120554,90,191.030327066,blue,incongruent,correct,j,0.512688224161
120554,91,193.051287084,green,congruent,correct,f,1.05173977748
120554,92,195.072356755,blue,incongruent,correct,j,0.886678516632
120554,93,197.093768613,yellow,congruent,correct,k,0.465295757052
120554,94,199.114841271,yellow,incongruent,correct,k,0.492258126727
120554,95,201.136215583,blue,congruent,correct,j,0.663122059197
120554,96,203.156710107,green,neutral,correct,f,0.658349361791
120554,97,205.177197378,red,neutral,correct,d,0.60607027718
120554,98,207.198101929,yellow,congruent,correct,k,1.03314776162
120554,99,209.219374694,blue,congruent,correct,j,0.483636039369
120554,100,211.240166178,green,neutral,correct,f,0.558883463581
120554,101,213.262095157,yellow,congruent,correct,k,0.585290312781
120554,102,215.282360561,red,neutral,correct,d,0.597003176109
120554,103,217.302713005,blue,neutral,incorrect,k,0.592380238831
120554,104,219.324111637,red,incongruent,correct,d,0.634947528489
120554,105,221.344396241,red,neutral,correct,d,0.550626603201
120554,106,223.364718818,red,neutral,correct,d,0.562321119847
120554,107,225.385925023,green,congruent,correct,f,0.621391463587
120554,108,227.407386374,yellow,congruent,correct,k,0.631667312356
120554,109,229.427880045,yellow,neutral,correct,k,0.563242720634
120554,110,231.448546943,blue,neutral,correct,j,0.558521223271
120554,111,233.469213414,red,neutral,correct,d,0.554217006265
120554,112,235.490438392,blue,congruent,correct,j,0.868800741377
120554,113,237.512367371,red,neutral,correct,d,0.654905732186
120554,115,242.953097347,red,neutral,correct,d,1.02215127224
120554,116,244.975096299,red,congruent,correct,d,0.632064966029
120554,117,246.997626451,blue,congruent,correct,j,0.737451722625
120554,118,249.018355216,red,neutral,correct,d,0.588721142376
120554,119,251.03913518,blue,neutral,correct,j,0.679939140215
120554,120,253.059485064,green,neutral,correct,f,0.595646374952
120554,121,255.080631535,blue,incongruent,correct,j,0.798646014845
120554,122,257.101848407,yellow,congruent,correct,k,0.441588430155
120554,123,259.123228265,yellow,congruent,correct,k,0.563860107827
120554,124,261.144122576,blue,incongruent,correct,j,0.814974135445
120554,125,263.165276728,blue,congruent,correct,j,0.490151244929
120554,126,265.185576265,blue,neutral,correct,j,0.565515575907
120554,127,267.20656487,blue,congruent,correct,j,0.592518052282
120554,128,269.226683073,yellow,neutral,correct,k,0.940744482769
120554,129,271.246979624,blue,neutral,correct,j,0.600113578764
120554,130,273.268085562,red,neutral,correct,d,0.483026332182
120554,131,275.288599286,red,neutral,correct,d,0.478863341963
120554,132,277.309922824,red,congruent,correct,d,0.553233112092
120554,133,279.330273989,yellow,neutral,correct,k,0.709068978405
120554,134,281.3515395,blue,incongruent,correct,j,0.575643371216
120554,135,283.371878717,yellow,neutral,correct,k,0.555229060462
120554,136,285.393108389,red,congruent,correct,d,0.534114589111
120554,138,290.380649285,red,incongruent,correct,d,0.890785186803
120554,139,292.401223169,blue,neutral,correct,j,0.709895432444
120554,140,294.424670656,green,incongruent,correct,f,0.654451758465
120554,141,296.44565798,green,incongruent,correct,f,0.521455804976
120554,142,298.466630372,yellow,congruent,correct,k,0.564482615025
120554,143,300.487454709,blue,congruent,correct,j,0.447656488667
120554,144,302.507921927,green,neutral,correct,f,0.523187219786
120554,145,304.529785199,green,incongruent,correct,f,0.66157837788
120554,146,306.551173164,red,congruent,correct,d,0.671947666729
120554,147,308.572470249,green,incongruent,correct,f,1.03465986958
120554,148,310.59339016,blue,incongruent,correct,j,0.645723857684
120554,149,312.614412044,yellow,congruent,correct,k,0.43307087622
120554,150,314.635648969,blue,incongruent,correct,j,0.491568632805
120554,151,316.655989466,blue,neutral,correct,j,0.567189817335
120554,152,318.676987884,red,incongruent,correct,d,0.946131154032
120554,153,320.697772542,blue,neutral,correct,j,0.637490890659
120554,154,322.719271014,yellow,congruent,correct,k,0.584000498347
120554,155,324.740642765,blue,incongruent,correct,j,0.674828949187
120554,156,326.761851103,yellow,congruent,correct,k,0.637272437139
120554,157,328.782922055,yellow,congruent,correct,k,0.440226082326
120554,158,330.803132419,green,neutral,correct,f,0.564277388183
120554,159,332.825305451,yellow,incongruent,correct,k,0.862002228908
120554,160,334.845938642,red,neutral,correct,d,0.681294661371
120554,161,336.866428899,blue,neutral,correct,j,0.85272648766
120554,162,338.887603957,red,congruent,correct,d,0.735518494309
120554,163,340.908816136,yellow,incongruent,correct,k,1.03433645597
120554,164,342.929249646,green,neutral,correct,f,0.662153951705
120554,165,344.950461398,red,congruent,correct,d,0.737047668947
120554,166,346.971393682,green,neutral,correct,f,0.603833261937
120554,167,348.992600314,yellow,congruent,correct,k,0.806558981597
120554,168,351.013064971,green,neutral,correct,f,0.658368561808
120554,169,353.034755016,green,congruent,correct,f,0.636419529745
120554,170,355.055379247,red,neutral,correct,d,0.568037178058
120554,171,357.075772225,blue,neutral,correct,j,0.65939853602
120554,172,359.096094802,red,neutral,correct,d,0.55932037062
120554,173,361.116570126,red,neutral,correct,d,0.554861700149
120554,174,363.137823264,green,incongruent,correct,f,0.773601086806
120554,176,367.618395834,green,incongruent,correct,f,1.06108165212
120554,177,369.638826785,blue,neutral,correct,j,0.576392171854
120554,178,371.66003683,yellow,incongruent,correct,k,0.427147031166
120554,179,373.680819781,green,neutral,correct,f,0.646539645047
120554,180,375.701542572,red,neutral,correct,d,0.545643132282
120554,181,377.723117417,blue,congruent,correct,j,0.812423946601
120554,182,379.743606821,blue,neutral,correct,j,0.503593389733
120554,183,381.763839798,blue,neutral,correct,j,0.451394518524
120554,184,383.785643337,blue,incongruent,correct,j,0.445569233552
120554,185,385.806632368,blue,congruent,correct,j,0.440559735945
120554,186,387.826915266,yellow,neutral,correct,k,0.532353734275
120554,187,389.84815475,red,congruent,correct,d,0.591025571008
120554,188,391.869952742,blue,congruent,incorrect,k,0.617585593673
120554,189,393.891206307,red,incongruent,correct,d,0.739998071465
120554,190,395.911685045,red,neutral,correct,d,0.543659983923
120554,191,397.933024796,yellow,congruent,correct,k,0.746234236786
120554,192,399.953928494,red,neutral,correct,d,0.565607735985
120554,193,401.975610433,green,incongruent,correct,f,0.431578821614
120554,194,403.996817491,blue,congruent,correct,j,0.810716425145
120554,195,406.018324922,yellow,congruent,correct,k,0.789224780138
120554,196,408.03887662,red,neutral,correct,d,0.896330578202
120554,197,410.060445918,yellow,congruent,correct,k,0.699005183151
120554,198,412.081396549,red,incongruent,correct,d,0.678190232055
120554,199,414.102252034,green,congruent,correct,f,0.545173371881
120554,200,416.123577279,blue,congruent,correct,j,0.699639637025
120554,201,418.144837244,green,incongruent,correct,f,1.23838612342
120554,202,420.168286437,yellow,congruent,correct,k,0.60702003799
120554,203,422.189527202,blue,congruent,correct,j,0.505694298192
120554,204,424.210075486,blue,neutral,correct,j,0.613216523278
120554,206,430.279774532,red,congruent,correct,d,0.959579272174
120554,207,432.30029935,blue,neutral,correct,j,0.507060486025
120554,208,434.320829287,yellow,neutral,correct,k,0.694404005892
120554,209,436.341345145,red,neutral,correct,d,0.610183347356
120554,210,438.361879775,green,neutral,correct,f,0.973364457271
120554,211,440.383055687,yellow,congruent,correct,k,1.17620495036
120554,212,442.403475971,red,neutral,correct,d,1.0278084504
120554,213,444.424722282,red,incongruent,incorrect,f,0.750798294015
120554,214,446.444955686,green,neutral,correct,f,0.730272196499
120554,215,448.466224185,blue,incongruent,correct,j,0.773095486375
120554,216,450.486657695,green,neutral,correct,f,0.60860510601
120554,217,452.508689927,yellow,incongruent,correct,k,0.458815964856
120554,218,454.529999812,blue,incongruent,correct,j,0.629246830291
120554,219,456.551157804,green,congruent,correct,f,0.624131092592
120554,220,458.572494995,red,congruent,correct,d,0.506757552433
120554,221,460.592726266,blue,neutral,correct,j,0.806643461669
120554,222,462.613942284,yellow,congruent,correct,k,0.801325483797
120554,223,464.634446195,yellow,neutral,correct,k,0.49311274079
120554,224,466.655487279,yellow,incongruent,correct,k,0.503838296609
120554,225,468.676576577,blue,congruent,correct,j,0.466734051613
120554,227,477.771850045,red,incongruent,correct,d,1.05153455064
120554,228,479.792440996,yellow,neutral,correct,k,0.662830218948
120554,229,481.814008161,yellow,incongruent,correct,k,0.529314158348
120554,230,483.835245939,red,congruent,correct,d,0.604180995568
120554,231,485.856381744,red,congruent,correct,d,0.534926536471
120554,232,487.877069975,red,neutral,correct,d,0.498201171798
120554,233,489.897699753,green,neutral,correct,f,0.477595287548
120554,234,491.918269797,green,neutral,correct,f,0.44129744324
120554,235,493.939764429,yellow,congruent,correct,k,0.627500908801
120554,236,495.960980447,blue,congruent,correct,j,0.606459824179
120554,237,497.982486598,red,congruent,correct,d,0.729069848806
120554,238,500.003749977,blue,incongruent,correct,j,1.09158749149
120554,239,502.024743701,red,congruent,correct,d,0.606551557591
120554,240,504.046486653,blue,incongruent,correct,j,0.584791965689
120554,241,506.067729978,green,incongruent,correct,f,0.531837893835
120554,242,508.088824822,green,neutral,correct,f,0.462498527998
120554,243,510.110038707,green,congruent,correct,f,0.377391255374
120554,244,512.131624646,yellow,congruent,correct,k,0.547944574246
120554,245,514.15275277,green,incongruent,correct,f,0.558507996594
120554,247,520.546117586,red,incongruent,correct,d,0.933222769683
120554,248,522.567129657,yellow,congruent,correct,k,0.848401363969
120554,249,524.587962102,blue,neutral,correct,j,0.651352449154
120554,250,526.60890548,blue,incongruent,correct,j,0.726432193222
120554,251,528.629295044,red,neutral,correct,d,0.657995654823
120554,252,530.650473088,green,congruent,correct,f,0.508954887641
120554,253,532.670892519,green,neutral,correct,f,0.536518857829
120554,254,534.692164857,green,incongruent,correct,f,0.403151277356
120554,255,536.712503648,yellow,neutral,correct,k,0.558819463526
120554,256,538.733621959,blue,incongruent,correct,j,0.457713883916
120554,257,540.754535897,green,congruent,correct,f,0.948842623012
120554,258,542.775049621,green,neutral,correct,f,0.512295263825
120554,259,544.795804412,red,neutral,correct,d,0.635523102313
120554,260,546.817086564,green,incongruent,correct,f,0.822539795234
120554,261,548.838030795,green,incongruent,correct,f,0.481273157353
120554,262,550.858829106,green,neutral,correct,f,0.492500473601
120554,263,552.880127044,green,incongruent,correct,f,0.455353988569
120554,264,554.901183916,red,congruent,correct,d,0.594114213644
120554,265,556.922165267,red,incongruent,correct,d,0.909130589125
120554,266,558.942476324,blue,neutral,correct,j,0.744947409022
120554,267,560.963656929,red,neutral,correct,d,0.611685215305
120554,268,562.98487764,red,incongruent,correct,d,0.510461875594
120554,269,565.006517766,red,congruent,correct,d,0.425116096099
120554,270,567.027898904,yellow,congruent,correct,k,0.819550139349
120554,271,569.048514175,green,neutral,correct,f,0.670956519216
120554,272,571.070015206,yellow,incongruent,correct,k,0.681368474768
120554,273,573.091584505,blue,congruent,correct,j,0.803947352702
120554,274,575.11317215,yellow,incongruent,correct,k,0.622160317577
120554,275,577.134400968,yellow,incongruent,correct,k,0.617048846548
120554,276,579.156282587,yellow,congruent,correct,k,0.403059970611
120554,277,581.179034179,yellow,incongruent,correct,k,0.700682411249
120554,278,583.200146517,blue,incongruent,correct,j,0.759219421201
120554,280,588.487480309,green,neutral,correct,f,0.73587902795
120554,281,590.508728327,yellow,congruent,correct,k,0.682629702511
120554,282,592.530487066,green,congruent,correct,f,0.644892283641
120554,283,594.55088559,red,neutral,correct,d,0.592681465755
120554,284,596.571529448,green,neutral,correct,f,0.684127730456
120554,285,598.592243705,green,neutral,correct,f,0.583132657606
120554,286,600.613586444,blue,incongruent,correct,j,0.769761510197
120554,287,602.635027742,yellow,congruent,correct,k,0.49234687347
120554,288,604.656063707,green,congruent,correct,f,0.631316592057
120554,289,606.677188418,red,congruent,correct,d,0.498520745404
120554,290,608.698153982,red,incongruent,correct,d,0.541575715478
120554,291,610.719707067,red,congruent,correct,d,0.55165999075
120554,292,612.740179405,green,neutral,correct,f,0.659183922503
120554,293,614.761726517,green,incongruent,correct,f,0.621994344101
120554,294,616.782829895,red,congruent,correct,d,0.696924328042
120554,295,618.803312899,red,neutral,correct,d,0.500290986915
120554,296,620.82456561,yellow,incongruent,correct,k,0.622883518194
120554,297,622.845699708,red,congruent,correct,d,0.71367954234
120554,298,624.8668385,blue,incongruent,correct,j,0.62856714971
120554,299,626.888231585,red,incongruent,incorrect,f,0.927164951181
120554,300,628.908621149,blue,neutral,correct,j,1.00304469593
120554,301,630.930169967,green,congruent,correct,f,0.75753109976
120554,302,632.952066519,red,congruent,correct,d,0.847341949732
120554,303,634.973098217,yellow,incongruent,correct,k,0.874678506392
120554,304,636.994312528,yellow,incongruent,correct,k,0.581343642747
120554,305,639.015054946,red,neutral,correct,d,0.89663692513
120554,306,641.035655284,yellow,neutral,correct,k,0.620028262424
120554,307,643.056788528,yellow,congruent,correct,k,0.518625722561
120554,308,645.077748546,yellow,incongruent,correct,k,0.497665278008
120554,309,647.099462058,blue,congruent,correct,j,0.63631243632
120554,310,649.119821329,red,neutral,correct,d,0.6796093266
120554,311,651.140152013,blue,neutral,correct,j,0.723252670509
120554,312,653.161577525,yellow,incongruent,correct,k,0.494061648266
120554,313,655.181965382,green,neutral,correct,f,0.537555658714
120554,314,657.20299452,green,incongruent,correct,f,0.692638457718
120554,315,659.223661418,red,neutral,correct,d,0.623793172304
120554,317,666.516206947,green,neutral,correct,f,1.20322406675
120554,318,668.537374752,blue,incongruent,correct,j,0.958026204182
120554,319,670.558486237,red,incongruent,correct,d,0.617155086639
120554,320,672.578816494,yellow,neutral,correct,k,0.40494114555
120554,321,674.599288405,red,neutral,correct,d,0.576317505124
120554,322,676.62073909,blue,incongruent,correct,j,0.762703584174
120554,323,678.641123107,yellow,neutral,correct,k,0.534372295998
120554,324,680.662406965,blue,incongruent,correct,j,0.833167217636
120554,325,682.683688263,blue,congruent,correct,j,0.55573807423
120554,326,684.705260548,green,congruent,correct,f,0.694205605722
120554,327,686.726520513,green,incongruent,correct,f,0.480924997056
120554,328,688.747632851,yellow,congruent,correct,k,0.667858063239
120554,329,690.768717029,yellow,incongruent,correct,k,0.470985361907
120554,330,692.790293581,blue,congruent,correct,j,0.625488320416
120554,331,694.812156853,red,neutral,correct,d,0.683297436414
120554,332,696.832298097,red,neutral,correct,d,0.455485828682
120554,333,698.852720941,blue,neutral,correct,j,0.62672650814
120554,334,700.873243199,blue,neutral,correct,j,0.494477221954
120554,335,702.893698043,blue,neutral,correct,j,0.521863698657
120554,337,708.732381638,red,congruent,correct,d,0.683049116202
120554,338,710.752895789,green,neutral,correct,f,0.566807523676
120554,339,712.77363906,yellow,incongruent,correct,k,0.609846707069
120554,340,714.794840145,yellow,congruent,correct,k,0.588626422295
120554,341,716.815195149,blue,neutral,correct,j,0.840579703961
120554,342,718.83626738,green,incongruent,correct,f,0.803234392094
120554,343,720.857436465,yellow,incongruent,correct,k,0.910054749913
120554,344,722.881113072,red,congruent,correct,d,0.598368937275
120554,345,724.902225837,red,congruent,correct,d,0.417257742726
120554,346,726.923640255,yellow,congruent,correct,k,0.652137089824
120554,347,728.943930405,blue,neutral,correct,j,0.71155004719
120554,348,730.964282423,yellow,neutral,correct,k,0.675208682845
120554,349,732.985439561,yellow,congruent,correct,k,0.526176875671
120554,350,735.006639792,green,congruent,correct,f,0.616969913147
120554,351,737.02701997,green,neutral,correct,f,0.436531572507
120554,352,739.048258175,green,congruent,correct,f,0.463299808682
120554,353,741.069347046,green,incongruent,correct,f,0.586265246946
120554,354,743.090857891,blue,incongruent,incorrect,k,0.468633573234
120554,355,745.112062816,red,congruent,correct,d,0.591537998112
120554,356,747.13251382,green,neutral,correct,f,0.93899557461
120554,357,749.153146584,yellow,neutral,correct,k,1.14243852155
120554,358,751.174216682,red,incongruent,correct,d,0.993576954519
120554,359,753.1958743,yellow,incongruent,correct,k,0.87579680068
120554,360,755.216575331,red,neutral,correct,d,0.758940380962
120554,361,757.237730336,red,congruent,correct,d,0.657957681457
120554,363,771.609760094,blue,incongruent,correct,j,1.11777503383
120554,364,773.631203525,yellow,incongruent,correct,k,0.440309709064
120554,365,775.652492077,green,congruent,correct,f,0.579029400772
120554,366,777.673508841,red,incongruent,correct,d,0.526005782192
120554,367,779.694508539,yellow,incongruent,correct,k,0.633016006841
120554,368,781.714693303,yellow,neutral,correct,k,0.453155800026
120554,369,783.735313267,red,neutral,correct,d,0.608264625719
120554,370,785.756430725,green,congruent,correct,f,0.555232900465
120554,371,787.782558961,blue,incongruent,correct,j,1.59030194372
120554,372,789.816024163,red,incongruent,correct,d,1.11950559531
120554,373,791.836343754,red,neutral,correct,d,0.57119536742
120554,374,793.857381425,red,incongruent,correct,d,0.598212777142
120554,375,795.87849803,yellow,congruent,correct,k,0.513262517984
120554,376,797.900198315,yellow,congruent,correct,k,0.41134712435
120554,377,799.921177533,blue,incongruent,correct,j,0.614715404557
120554,378,801.942102991,green,incongruent,correct,f,1.18572858516
120554,379,803.963035702,blue,incongruent,correct,j,0.732609905161
120554,380,805.984079346,yellow,incongruent,correct,k,0.375477653741
120554,381,808.004372057,green,neutral,correct,f,0.659506482779
120554,382,810.024747541,green,neutral,correct,f,0.462805728261
120554,383,812.04701572,red,congruent,correct,d,0.472536296565
120554,384,814.067592591,red,neutral,correct,d,0.452296492626
120554,385,816.087950155,blue,neutral,correct,j,0.639661345845
120554,386,818.108663559,blue,neutral,correct,j,0.635250035413
120554,387,820.130288751,blue,incongruent,correct,j,0.453286786805
120554,388,822.150784555,green,neutral,correct,f,0.640780493466
120554,389,824.171985213,green,congruent,correct,f,0.475840406051
120554,390,826.193092005,red,incongruent,correct,d,0.454720814695
120554,391,828.214237196,blue,congruent,correct,j,0.785328883481
120554,392,830.235915295,blue,congruent,correct,j,0.475674005908
120554,393,832.256623152,yellow,neutral,correct,k,0.519072869609
120554,394,834.277979544,blue,congruent,correct,j,0.529573145236
120554,395,836.298483881,yellow,neutral,correct,k,0.381094725201
120554,397,841.422449854,yellow,incongruent,correct,k,0.921120359356
120554,398,843.442885071,red,neutral,correct,d,0.564783415282
120554,399,845.463974369,blue,incongruent,correct,j,0.559607944199
120554,400,847.485692148,blue,incongruent,correct,j,0.521960552073
120554,401,849.505978458,yellow,neutral,correct,k,0.597603923289
120554,402,851.527269997,yellow,incongruent,incorrect,j,0.768339002316
120554,403,853.548784682,red,incongruent,correct,d,0.826797932201
120554,404,855.569875686,yellow,congruent,correct,k,1.03001815895
120554,405,857.590345464,yellow,neutral,correct,k,0.497247997652
120554,406,859.610950921,green,neutral,correct,f,0.700938838134
120554,407,861.632151579,yellow,congruent,correct,k,0.631759899102
120554,408,863.652978477,green,congruent,correct,f,0.610621534397
120554,409,865.674021268,green,congruent,correct,f,0.477604674223
120554,410,867.695465553,blue,congruent,correct,j,0.856391130787
120554,411,869.716401678,green,neutral,correct,f,0.627334508659
120554,412,871.738515404,blue,incongruent,correct,j,0.557105115396
120554,413,873.760208862,red,congruent,correct,d,0.583399324501
120554,414,875.780975173,red,incongruent,correct,d,0.466617144847
120554,415,877.802297431,green,incongruent,correct,f,1.14954082094
120554,416,879.823437076,green,incongruent,correct,f,0.664172513427
120554,417,881.844519121,red,incongruent,correct,d,0.819088058955
120554,419,887.359731934,green,incongruent,correct,f,0.967874959253
120554,420,889.381177499,yellow,incongruent,correct,k,0.722495336529
120554,421,891.401674583,yellow,neutral,correct,k,0.478210541406
120554,422,893.422943934,yellow,incongruent,correct,k,0.520680124314
120554,423,895.443708539,yellow,neutral,correct,k,0.419918864997
120554,424,897.464864397,blue,incongruent,correct,j,1.07102299394
120554,425,899.486087668,blue,incongruent,correct,j,0.473561150772
120554,426,901.508770567,yellow,incongruent,correct,k,0.658852828888
120554,427,903.530209732,red,congruent,correct,d,0.605739183564
120554,428,905.551523457,blue,congruent,correct,j,0.744134181661
120554,429,907.572645609,red,incongruent,correct,d,0.53112450656
120554,430,909.59382152,red,congruent,correct,d,0.525815062029
120554,431,911.615611405,red,congruent,correct,d,0.536021790739
120554,432,913.636364916,yellow,neutral,correct,k,0.707530417093
120554,433,915.657613788,green,congruent,correct,f,0.782364400951
120554,434,917.679346926,blue,incongruent,correct,j,0.600283818909
120554,435,919.700399958,red,congruent,correct,d,0.499232426012
120554,436,921.721807549,green,incongruent,correct,f,0.557850076032
120554,437,923.743266768,red,incongruent,correct,d,0.616684046237
120554,438,925.763546252,green,neutral,correct,f,0.596340135543
120554,440,932.974682858,yellow,neutral,correct,k,0.825024277354
120554,441,934.994914129,green,neutral,correct,f,0.580876869015
120554,442,937.015153933,red,neutral,correct,d,0.672611560628
120554,443,939.036751818,yellow,incongruent,correct,k,0.539261473503
120554,444,941.057623089,yellow,incongruent,correct,k,0.45409361416
120554,445,943.07785948,yellow,neutral,correct,k,0.418079930095
120554,446,945.099198805,green,congruent,correct,f,0.588816289123
120554,447,947.120252263,blue,congruent,correct,j,0.615779085465
120554,448,949.141862094,green,incongruent,correct,f,0.593874000106
120554,449,951.162329739,blue,neutral,correct,j,0.589338102902
120554,450,953.18380645,blue,congruent,correct,j,0.455845082321
120554,451,955.204002307,blue,neutral,correct,j,0.435668851771
120554,452,957.225357419,green,incongruent,correct,f,0.638493984848
120554,453,959.245801596,red,neutral,correct,d,0.521904658692
120554,454,961.267017188,red,congruent,correct,d,0.388664224993
120554,455,963.288048886,blue,congruent,correct,j,0.527693676965
120554,456,965.309829384,blue,incongruent,correct,j,0.393958736178
120554,457,967.330809456,green,incongruent,correct,f,0.692895737938
120554,458,969.35204894,red,congruent,correct,d,0.527707756977
120554,459,971.373097705,green,congruent,correct,f,0.474904725252
120554,460,973.394209616,yellow,congruent,correct,k,0.629470830482
120554,461,975.415477261,green,incongruent,correct,f,0.608549639296
120554,462,977.436985973,red,congruent,correct,d,0.522776766103
120554,463,979.458592391,red,incongruent,correct,d,0.549242068687
120554,464,981.480043503,green,congruent,correct,f,0.591746211624
120554,465,983.501278294,green,congruent,correct,f,0.442417870863
120554,467,989.276314262,yellow,congruent,correct,k,0.587495327996
120554,468,991.296934227,yellow,neutral,correct,k,0.470766908388
120554,469,993.317838778,blue,neutral,correct,j,0.882207472817
120554,470,995.338296609,green,neutral,correct,f,0.589712716555
120554,471,997.3599346,red,congruent,correct,d,0.472001682775
120554,472,999.381048218,blue,incongruent,correct,j,0.690671949373
120554,473,1001.40230648,blue,congruent,correct,j,0.429411779765
120554,474,1003.4226794,blue,neutral,correct,j,0.361047774761
120554,475,1005.44394534,green,incongruent,correct,f,0.54778158744
120554,476,1007.46556968,blue,incongruent,correct,j,0.606145370577
120554,477,1009.48695082,green,congruent,correct,f,0.600815446029
120554,478,1011.50813953,green,incongruent,correct,f,0.467641999054
120554,479,1013.529862,green,incongruent,correct,f,0.446102567341
120554,480,1015.55087834,yellow,congruent,correct,k,0.52105857797
120554,481,1017.57235846,blue,congruent,correct,j,0.451665878755
120554,482,1019.59326941,yellow,congruent,correct,k,0.494454181934
120554,483,1021.61447007,yellow,incongruent,correct,k,0.521515111693
120554,484,1023.63557814,blue,incongruent,correct,j,0.452121132477
120554,485,1025.65676643,green,congruent,correct,f,0.574961983968
120554,486,1027.67732666,red,neutral,correct,d,0.538567712911
120554,487,1029.6985862,red,incongruent,correct,d,0.453512493664
120554,488,1031.71964264,green,congruent,correct,f,0.64009313288
120554,489,1033.74052287,yellow,neutral,correct,k,0.53957379377
120554,490,1035.76116673,green,neutral,correct,f,0.5666014435
120554,491,1037.78303768,yellow,congruent,correct,k,0.656673413695
120554,492,1039.80465434,green,incongruent,correct,f,0.89110902708
120554,493,1041.82600262,green,congruent,correct,f,0.453981400731
120554,494,1043.84725192,green,incongruent,correct,f,0.432607089158
120554,495,1045.86835573,yellow,congruent,correct,k,0.555563567415
120554,496,1047.88887585,yellow,neutral,correct,k,0.454903854852
120554,497,1049.90944846,green,neutral,correct,f,0.546280146159
120554,498,1051.93148623,yellow,incongruent,correct,k,0.812606986758
120554,499,1053.95274364,green,incongruent,correct,f,0.663023499113
120554,501,1059.56274181,green,incongruent,correct,f,1.10102280621
120554,502,1061.58390322,green,congruent,correct,f,0.583866098232
120554,503,1063.6050531,blue,incongruent,correct,j,0.610884361288
120554,504,1065.62670731,green,congruent,correct,f,0.621065916643
120554,505,1067.64801549,blue,incongruent,correct,j,0.615808952157
120554,506,1069.66915769,blue,incongruent,correct,j,0.402611116895
120554,507,1071.69015014,red,incongruent,correct,d,0.509929821807
120554,508,1073.71083965,red,neutral,correct,d,0.392904441945
120554,509,1075.81074373,red,congruent,correct,d,0.468994533542
120554,510,1077.8310262,blue,neutral,correct,j,0.544747984852
120554,511,1079.85137737,red,neutral,correct,d,0.588395595431
120554,512,1081.87238517,blue,congruent,correct,j,0.519506363312
120554,513,1083.89335842,green,congruent,incorrect,d,0.562420959933
120554,514,1085.91497806,green,incongruent,correct,f,0.668813797387
120554,515,1087.93585872,blue,neutral,correct,j,0.631934832584
120554,516,1089.9571942,blue,incongruent,correct,j,0.834729245636
120554,517,1091.97830398,blue,congruent,correct,j,0.749811839839
120554,518,1093.99994496,blue,incongruent,correct,j,0.519845563601
120554,519,1096.0211917,green,congruent,correct,f,0.706548656255
120554,520,1098.04238724,blue,incongruent,correct,j,0.605401689942
120554,521,1100.06324272,yellow,neutral,correct,k,0.616646499539
120554,522,1102.08448647,green,congruent,correct,f,0.739311564213
120554,523,1104.10581129,yellow,incongruent,correct,k,0.846161788725
120554,524,1106.12719072,blue,incongruent,correct,j,0.616675939564
120554,525,1108.1473661,yellow,neutral,correct,k,0.660438750241
120554,526,1110.168641,green,congruent,correct,f,0.767259534729
120554,527,1112.1897175,green,incongruent,correct,f,0.76210497033
120554,528,1114.20999783,red,neutral,correct,d,0.694038352246
120554,529,1116.23053289,red,neutral,correct,d,0.433419463184
120554,530,1118.25183125,green,congruent,correct,f,0.587973621738
120554,531,1120.27311767,red,congruent,correct,d,0.534698696276
120554,532,1122.29433966,blue,congruent,incorrect,k,0.689480695024
120554,533,1124.31460208,yellow,neutral,correct,k,0.621429863621
120554,534,1126.33637661,red,incongruent,correct,d,0.823732329585
120554,535,1128.35672564,green,neutral,correct,f,0.611247028264
120554,536,1130.37751755,yellow,neutral,correct,k,0.702394626043
120554,538,1137.39194444,green,incongruent,correct,f,0.85601139713
120554,539,1139.4129147,blue,congruent,correct,j,0.978930328687
120554,540,1141.43409616,blue,congruent,correct,j,0.541713955596
120554,541,1143.45453692,yellow,neutral,correct,k,0.377388695372
120554,542,1145.47595219,green,incongruent,correct,f,0.57995228156
120554,543,1147.49779541,red,congruent,correct,d,0.558427783192
120554,544,1149.51847554,red,neutral,correct,d,0.601401259863
120554,545,1151.53960579,blue,incongruent,correct,j,0.660229683396
120554,546,1153.56003546,green,neutral,correct,f,0.639841825999
120554,547,1155.58046343,red,neutral,correct,d,0.635709555806
120554,548,1157.60102878,yellow,neutral,correct,k,0.551085696927
120554,549,1159.62230453,green,congruent,correct,f,0.65754765444
120554,550,1161.64276663,green,neutral,correct,f,0.445169873211
120554,551,1163.66420707,yellow,incongruent,correct,k,0.663977526594
120554,552,1165.68529253,blue,incongruent,correct,j,0.450602197847
120554,553,1167.7057781,blue,neutral,correct,j,0.462331274523
120554,554,1169.72609385,blue,neutral,correct,j,0.457769777297
120554,555,1171.74685205,green,neutral,correct,f,0.61307401649
120554,556,1173.76854978,green,congruent,correct,f,0.447265235
120554,557,1175.79005209,blue,congruent,correct,j,0.506037765152
120554,558,1177.81142555,red,congruent,correct,d,0.564446348328
120554,559,1179.83244231,yellow,incongruent,correct,k,0.527424450069
120554,560,1181.85376201,green,congruent,correct,f,0.746390823587
120554,561,1183.87432992,red,neutral,correct,d,0.581585136286
120554,562,1185.8953326,blue,incongruent,correct,j,0.67250788054
120554,563,1187.91643641,red,incongruent,correct,d,0.539421046973
120554,564,1189.93689979,blue,neutral,correct,j,0.951005398191
120554,565,1191.95787986,red,incongruent,correct,d,0.450211797514
120554,566,1193.97897982,yellow,congruent,correct,k,0.572998888959
120554,567,1195.99946923,yellow,neutral,correct,k,0.536522271166
120554,568,1198.01996034,yellow,neutral,correct,k,0.468126266134
120554,569,1200.04096302,yellow,congruent,correct,k,0.62305802501
120554,570,1202.06199045,green,incongruent,correct,f,0.729895449511
120554,571,1204.0830149,green,incongruent,correct,f,0.453202306733
120554,572,1206.10412382,yellow,incongruent,correct,k,0.512104116996
120554,573,1208.12447328,green,neutral,correct,f,0.555415513955
120554,574,1210.14558775,green,congruent,correct,f,0.502309548637
120554,575,1212.1667722,red,congruent,correct,d,0.609386333343
120554,576,1214.18828987,red,incongruent,correct,d,0.523768340282
120554,577,1216.20953959,green,incongruent,correct,f,0.534365895992
120554,578,1218.23096766,red,congruent,correct,d,0.608936626293
120554,579,1220.25128725,red,neutral,correct,d,0.508765874147
120554,580,1222.27208983,red,congruent,correct,d,0.455807535622
120554,581,1224.29320089,yellow,congruent,correct,k,0.562950880385
120554,582,1226.31439472,yellow,congruent,correct,k,0.397938686241
120554,583,1228.33461447,green,neutral,correct,f,0.553275778795
120554,584,1230.35612446,red,incongruent,correct,d,0.499832319857
120554,585,1232.3773375,green,neutral,correct,f,0.606763184438
120554,586,1234.39767373,blue,neutral,correct,j,0.746480423663
120554,587,1236.41859705,blue,neutral,correct,j,0.437336266527
120554,588,1238.43925541,blue,neutral,correct,j,0.416663395553
120554,589,1240.46051026,blue,incongruent,correct,j,0.539401846956
120554,590,1242.48079998,green,neutral,correct,f,0.631373765439
120554,591,1244.50146517,yellow,neutral,correct,k,0.53080834629
120554,592,1246.52234114,yellow,incongruent,correct,k,0.413943819899
120554,593,1248.54278788,red,neutral,correct,d,0.745231995932
120554,594,1250.56400133,blue,congruent,correct,j,0.611968095546
120554,595,1252.58456797,red,neutral,correct,d,0.655349892565
120554,596,1254.60565001,green,incongruent,correct,f,0.522457619164
120554,597,1256.62652469,green,congruent,correct,f,0.581603056301
120554,598,1258.64677602,yellow,neutral,correct,k,0.545172518548
142272,0,1.81486301233,blue,incongruent,correct,j,1.31131890717
142272,1,3.8382046557,green,congruent,correct,f,0.679970269877
142272,2,5.85829254046,red,neutral,correct,d,0.452178153733
142272,3,7.87886042502,red,neutral,correct,d,0.59165414756
142272,4,9.89931908296,blue,neutral,correct,j,0.714992334943
142272,5,11.9193775277,green,neutral,correct,f,0.646813164029
142272,6,13.9473054092,red,congruent,correct,d,0.699067008398
142272,7,15.9672094007,blue,incongruent,correct,j,0.646939457307
142272,8,17.9884846982,yellow,congruent,correct,k,0.33768348259
142272,9,20.0087615963,blue,neutral,correct,j,0.589423535181
142272,10,22.0285947611,red,neutral,correct,d,0.473616437921
142272,11,24.0482167261,yellow,incongruent,correct,k,0.614253817919
142272,12,26.0693512237,yellow,congruent,correct,k,0.544807447543
142272,13,28.0894344152,red,neutral,correct,d,0.588737882143
142272,14,30.1111120593,green,incongruent,correct,f,0.583038471239
142272,15,32.1324155168,yellow,congruent,correct,k,0.641744366185
142272,16,34.1518621219,blue,incongruent,correct,j,0.558488081711
142272,17,36.1717375267,green,incongruent,correct,f,0.554403176786
142272,18,38.1928925044,blue,incongruent,incorrect,k,0.549330538946
142272,19,40.2129573491,blue,neutral,correct,j,0.59355196009
142272,20,42.2333720604,green,neutral,correct,f,0.700776234335
142272,21,44.2532393586,yellow,incongruent,correct,k,0.680900402818
142272,22,46.2764393487,blue,incongruent,correct,j,0.881918770378
142272,23,48.2966232334,red,neutral,correct,d,0.621580534797
142272,24,50.32042013,green,congruent,correct,f,1.02998441387
142272,25,52.3407798013,green,neutral,correct,f,0.625354826516
142272,26,54.362390032,green,incongruent,correct,f,0.507757863357
142272,27,56.3825525834,yellow,neutral,correct,k,0.519649911614
142272,28,58.4028375881,blue,neutral,correct,j,0.483314140452
142272,29,60.4225316597,blue,congruent,correct,j,0.495626881864
142272,30,62.4428610377,yellow,neutral,correct,k,0.523418656674
142272,31,64.4624514294,yellow,incongruent,incorrect,j,0.47171947873
142272,32,66.482034141,red,congruent,correct,d,0.996065708343
142272,33,68.5019044259,red,incongruent,correct,d,0.672301793151
142272,34,70.5236435099,yellow,congruent,correct,k,0.602562302905
142272,35,72.5449764075,yellow,congruent,correct,k,0.501293439447
142272,36,74.5666608782,yellow,congruent,correct,k,0.463528762222
142272,37,76.5857136701,blue,neutral,correct,j,0.572427702435
142272,39,84.0221870839,blue,neutral,correct,j,0.832167324937
142272,40,86.0422992886,yellow,incongruent,correct,k,0.491827416816
142272,41,88.0658051986,blue,incongruent,correct,j,0.628321865246
142272,42,90.0894310018,green,congruent,correct,f,0.428702963756
142272,43,92.1093755267,green,incongruent,correct,f,0.584928177093
142272,44,94.1324577568,yellow,incongruent,correct,k,0.625655626391
142272,45,96.1522614817,green,incongruent,correct,f,0.542027288735
142272,46,98.1724090998,yellow,neutral,correct,k,0.649723882787
142272,47,100.194136237,yellow,congruent,correct,k,0.531982706358
142272,48,102.214452815,red,neutral,correct,d,1.13566244879
142272,49,104.238339738,green,congruent,correct,f,0.648069270159
142272,50,106.258725863,yellow,neutral,correct,k,0.531530439883
142272,51,108.28180596,blue,incongruent,correct,j,0.588323588985
142272,52,110.302469844,green,incongruent,correct,f,0.727653236201
142272,53,112.324144075,yellow,congruent,correct,k,1.50636693062
142272,54,114.34473244,yellow,neutral,correct,k,0.573723061883
142272,55,116.366092644,green,incongruent,correct,f,0.680181896452
142272,56,118.387630768,yellow,congruent,correct,k,0.466594360922
142272,57,120.408016039,yellow,neutral,correct,k,0.382100743642
142272,58,122.431550536,green,congruent,correct,f,0.59855931795
142272,59,124.453799486,yellow,congruent,correct,k,0.56031165427
142272,60,126.473595958,red,congruent,correct,d,0.876511199356
142272,61,128.493392429,yellow,incongruent,correct,k,0.600715690365
142272,62,130.517046393,green,congruent,correct,f,0.497060481255
142272,64,135.538474437,green,congruent,correct,f,0.819787170229
142272,65,137.558753468,red,neutral,correct,d,0.415417422759
142272,66,139.579098633,red,neutral,correct,d,0.41104110462
142272,67,141.599509504,blue,neutral,correct,j,0.35861872699
142272,68,143.620070989,red,neutral,correct,d,0.802357844332
142272,69,145.640103834,green,incongruent,correct,f,0.574060128398
142272,70,147.661827131,yellow,congruent,correct,k,0.600243797227
142272,71,149.681880029,blue,incongruent,correct,j,0.452341140335
142272,72,151.701784021,yellow,incongruent,correct,k,0.512270714768
142272,73,153.722266572,red,neutral,correct,d,0.492014296738
142272,74,155.742304537,red,incongruent,correct,d,0.61577488394
142272,75,157.762190181,red,congruent,correct,d,0.451884180533
142272,76,159.785982385,green,congruent,correct,f,0.604443048775
142272,77,161.806042109,green,incongruent,correct,f,0.504045864938
142272,78,163.826100981,red,congruent,correct,d,1.04397779457
142272,79,165.846594199,yellow,neutral,correct,k,0.623549600619
142272,80,167.868439096,green,incongruent,correct,f,0.633966236172
142272,81,169.89112282,yellow,congruent,correct,k,0.514956580286
142272,82,171.911528571,blue,congruent,correct,j,0.382878983306
142272,83,173.931863069,yellow,neutral,correct,k,0.586464176442
142272,84,175.951890794,blue,congruent,correct,j,0.710192336985
142272,85,177.97572353,green,congruent,correct,f,0.638593434196
142272,86,179.997157548,red,incongruent,correct,d,0.553198270631
142272,87,182.017193379,blue,incongruent,correct,j,0.644873538185
142272,88,184.037144304,red,congruent,correct,d,0.769054391872
142272,89,186.060787174,yellow,incongruent,correct,k,0.521621537446
142272,90,188.081162205,blue,neutral,correct,j,0.533226012492
142272,91,190.104881875,red,incongruent,correct,d,1.50131647944
142272,92,192.124627147,blue,congruent,correct,j,1.09748006507
142272,93,194.145289751,blue,neutral,correct,j,0.452786580143
142272,94,196.167292942,red,neutral,incorrect,f,1.18275149535
142272,95,198.188825519,yellow,congruent,correct,k,0.505312637739
142272,97,205.068921144,green,incongruent,correct,f,0.713473402247
142272,98,207.089735642,blue,neutral,correct,j,0.676334644762
142272,99,209.109697233,yellow,incongruent,correct,k,0.464638948419
142272,100,211.129378931,blue,incongruent,correct,j,0.396811350693
142272,101,213.149821803,blue,neutral,correct,j,0.456371431945
142272,102,215.170416567,yellow,neutral,correct,k,0.483773660257
142272,103,217.192072025,yellow,congruent,correct,k,0.494286722438
142272,104,219.211963643,red,congruent,incorrect,f,0.53810409041
142272,105,221.232317341,green,neutral,correct,f,0.629764424637
142272,106,223.252674026,red,neutral,correct,d,0.577607860221
142272,107,225.272615564,yellow,incongruent,correct,k,0.797523713052
142272,108,227.294658861,blue,incongruent,correct,j,0.487421658698
142272,109,229.316547278,yellow,congruent,correct,k,0.513550714219
142272,110,231.337528603,blue,neutral,correct,j,0.524519029539
142272,111,233.35832006,yellow,neutral,correct,k,0.455757458876
142272,112,235.378322612,blue,incongruent,correct,j,0.595890519086
142272,113,237.399088896,red,neutral,correct,d,0.606974034359
142272,114,239.419850061,red,neutral,correct,d,0.554264510181
142272,115,241.443422957,red,incongruent,correct,d,0.515289380142
142272,116,243.467032974,red,incongruent,correct,d,0.443379010823
142272,117,245.488798938,green,incongruent,correct,f,0.533562652345
142272,118,247.509438076,green,neutral,correct,f,0.656603026517
142272,119,249.533145373,red,incongruent,correct,d,0.617060430057
142272,120,251.552950804,blue,congruent,correct,j,0.789083396659
142272,121,253.572841142,red,congruent,correct,d,0.70546060567
142272,122,255.592415321,blue,congruent,correct,j,0.941695171539
142272,123,257.612300965,blue,incongruent,correct,j,0.457735058037
142272,124,259.632668743,yellow,neutral,correct,k,0.485366832909
142272,125,261.652636735,green,incongruent,correct,f,0.641416686332
142272,126,263.672494646,blue,congruent,correct,j,0.637728581241
142272,127,265.696298796,green,congruent,correct,f,0.645737964485
142272,129,270.320632183,red,congruent,correct,d,0.677565577578
142272,130,272.341215428,blue,neutral,correct,j,0.576872287202
142272,131,274.364587364,blue,incongruent,correct,j,0.441504664952
142272,132,276.385091249,green,neutral,correct,f,0.533124039204
142272,133,278.405518334,red,congruent,correct,d,0.560566374152
142272,134,280.425639498,blue,incongruent,correct,j,0.556512615891
142272,135,282.44616173,red,neutral,correct,d,0.67993400323
142272,136,284.468039907,green,incongruent,correct,f,0.434073841461
142272,137,286.488374832,blue,neutral,correct,j,0.509734182517
142272,138,288.50820885,red,incongruent,incorrect,f,0.873858187151
142272,139,290.530844787,green,incongruent,correct,f,0.675160458595
142272,140,292.551009898,red,congruent,correct,d,0.591038467821
142272,141,294.570865676,blue,congruent,correct,j,0.459554363923
142272,142,296.590835801,green,incongruent,correct,f,0.727330249669
142272,143,298.614420645,red,incongruent,correct,d,0.623851680495
142272,144,300.634617329,red,congruent,correct,d,0.507436156826
142272,145,302.654501694,red,congruent,correct,d,0.423536885952
142272,146,304.674244832,blue,congruent,correct,j,0.387997701124
142272,147,306.694453464,blue,congruent,correct,j,0.431571869194
142272,148,308.71834636,red,incongruent,correct,d,0.887813167865
142272,149,310.738465818,blue,congruent,correct,j,0.595625132533
142272,150,312.758412476,blue,congruent,correct,j,0.543578648074
142272,151,314.778365961,green,incongruent,correct,f,0.635630235462
142272,152,316.800160512,green,neutral,correct,f,0.582116871628
142272,153,318.821729356,yellow,congruent,correct,k,0.592265987303
142272,154,320.841824921,blue,incongruent,correct,j,0.42817859065
142272,155,322.862389392,yellow,neutral,correct,k,0.615969017192
142272,156,324.886106502,blue,incongruent,correct,j,0.720176332725
142272,157,326.907819986,red,incongruent,correct,d,0.618177869575
142272,158,328.928253044,blue,neutral,correct,j,1.47778752947
142272,159,330.948284182,green,incongruent,correct,f,0.849952064025
142272,160,332.968838413,green,neutral,correct,f,0.941229251745
142272,161,334.988645125,green,incongruent,correct,f,0.521381324215
142272,163,339.598792705,yellow,congruent,correct,k,0.631225330675
142272,164,341.618911309,red,congruent,correct,d,1.04311080828
142272,165,343.638970181,red,incongruent,correct,d,0.655049960515
142272,166,345.659316625,red,neutral,correct,d,0.507044476995
142272,167,347.683529948,yellow,incongruent,correct,k,0.642655725802
142272,168,349.703544446,green,incongruent,incorrect,j,0.654437694109
142272,169,351.724137504,blue,congruent,correct,j,0.473851531162
142272,170,353.745019415,red,neutral,correct,d,0.613358671639
142272,171,355.765181114,blue,incongruent,correct,j,0.816819704822
142272,172,357.785763505,green,neutral,correct,f,0.764242020588
142272,173,359.809873148,green,congruent,correct,f,0.516184526423
142272,174,361.831648498,yellow,congruent,correct,k,0.526362655415
142272,175,363.853128596,red,incongruent,correct,d,0.824899914704
142272,176,365.873178934,blue,congruent,correct,j,0.596951211963
142272,177,367.896677591,blue,incongruent,correct,j,0.525652682394
142272,178,369.920916514,green,congruent,correct,f,0.485081819694
142272,179,371.941281732,red,neutral,correct,d,0.576721247264
142272,180,373.96127319,blue,congruent,correct,j,0.780779613531
142272,181,375.982031368,blue,neutral,correct,j,0.488179845037
142272,182,378.002922665,blue,neutral,correct,j,0.467150307348
142272,183,380.024350283,red,congruent,correct,d,0.749637653484
142272,184,382.044343021,blue,congruent,correct,j,0.569642850285
142272,185,384.068015331,blue,incongruent,correct,j,0.482148060953
142272,186,386.088132229,blue,congruent,correct,j,0.494205655807
142272,187,388.109882406,red,incongruent,correct,d,0.744320962425
142272,188,390.130426398,blue,neutral,correct,j,0.64353465876
142272,189,392.150331243,red,neutral,correct,d,0.703682259766
142272,190,394.170894434,yellow,neutral,correct,k,0.555066643174
142272,191,396.191043332,green,incongruent,correct,f,0.663061050429
142272,192,398.211219537,blue,incongruent,correct,j,0.546797846699
142272,193,400.234663153,red,incongruent,correct,d,0.491338457032
142272,194,402.254857705,red,incongruent,correct,d,0.631253063999
142272,195,404.276930869,yellow,congruent,correct,k,0.609391526654
142272,196,406.29699742,blue,congruent,correct,j,0.589074521995
142272,197,408.317851171,yellow,neutral,correct,k,0.488144431722
142272,198,410.342026094,green,congruent,correct,f,0.607972860598
142272,199,412.362378085,red,neutral,correct,d,0.555940029459
142272,201,416.833210524,green,neutral,correct,f,0.644959724814
142272,202,418.853858196,blue,neutral,incorrect,k,0.544333847749
142272,203,420.874085174,blue,congruent,correct,j,0.60387899568
142272,204,422.894106499,green,incongruent,correct,f,0.680168669795
142272,205,424.915680889,yellow,congruent,correct,k,0.498322987383
142272,206,426.939328026,red,incongruent,correct,d,1.01886591195
142272,207,428.961048337,yellow,congruent,correct,k,0.452996073385
142272,208,430.980987741,blue,congruent,correct,j,0.464994788272
142272,209,433.004873811,red,incongruent,correct,d,0.585176923654
142272,210,435.025003083,blue,incongruent,correct,j,0.533206812499
142272,211,437.045612354,blue,neutral,correct,j,0.544733634248
142272,212,439.069610637,red,incongruent,correct,d,0.63239909018
142272,213,441.089604228,yellow,incongruent,correct,k,0.436388933806
142272,214,443.111305766,yellow,congruent,correct,k,0.526924148508
142272,215,445.13200165,blue,neutral,correct,j,0.649970069346
142272,216,447.153961321,green,incongruent,correct,f,0.708007377922
142272,217,449.174283872,blue,congruent,correct,j,0.735962565988
142272,218,451.197998422,green,congruent,correct,f,0.744167789155
142272,219,453.222313718,green,congruent,correct,f,0.527652468205
142272,220,455.24291531,yellow,neutral,correct,k,0.555233043095
142272,221,457.26655946,red,incongruent,correct,d,0.995612588536
142272,222,459.290510809,red,incongruent,incorrect,f,0.587439962692
142272,223,461.310839761,red,neutral,correct,d,0.56718354467
142272,224,463.334611057,blue,incongruent,correct,j,0.65535716038
142272,225,465.354664809,red,congruent,correct,d,0.859308860025
142272,226,467.374769333,blue,congruent,correct,j,0.551257364794
142272,227,469.396739244,yellow,congruent,correct,k,0.561297680513
142272,228,471.418883235,yellow,congruent,correct,k,0.459364497336
142272,230,477.383099997,red,congruent,correct,d,0.94291117102
142272,231,479.403419988,yellow,incongruent,correct,k,0.538548676886
142272,232,481.423458806,blue,congruent,correct,j,0.56686269147
142272,233,483.445196183,yellow,congruent,correct,k,0.544777154231
142272,234,485.465698788,green,neutral,correct,f,0.844224493136
142272,235,487.485608326,blue,congruent,correct,j,0.584312497362
142272,236,489.509460689,green,congruent,correct,f,0.576501087358
142272,237,491.530245747,blue,neutral,correct,j,1.32369607522
142272,238,493.550392512,green,incongruent,correct,f,0.663548730219
142272,239,495.57046205,red,incongruent,correct,d,0.675480885126
142272,240,497.591057241,red,neutral,correct,d,0.574911754709
142272,241,499.611722406,green,neutral,correct,f,0.666228195747
142272,242,501.635357169,blue,incongruent,correct,j,0.610779899405
142272,243,503.655489,blue,incongruent,correct,j,0.526426228724
142272,244,505.677374858,yellow,congruent,correct,k,0.376733279256
142272,245,507.699417728,red,incongruent,incorrect,f,0.67453453887
142272,246,509.721916279,red,incongruent,correct,d,1.00417023822
142272,247,511.742321177,red,neutral,correct,d,0.487679365258
142272,248,513.762611301,red,neutral,correct,d,0.531330759964
142272,249,515.785978971,green,congruent,correct,f,0.555975869451
142272,250,517.806721789,yellow,neutral,correct,k,0.743201816236
142272,251,519.826806261,yellow,incongruent,correct,k,0.515303460139
142272,252,521.847077185,blue,congruent,correct,j,0.671076407009
142272,253,523.867808483,yellow,neutral,incorrect,j,1.14647972417
142272,254,525.888195034,green,neutral,correct,f,0.805711869558
142272,255,527.908672892,green,neutral,correct,f,0.561224720543
142272,256,529.929511283,green,neutral,correct,f,0.524399136259
142272,257,531.951013994,red,neutral,correct,d,0.519250125122
142272,258,533.971362572,green,neutral,correct,f,0.802810110799
142272,259,535.991491844,blue,incongruent,correct,j,1.0066274105
142272,260,538.013474981,green,incongruent,correct,f,0.760608955468
142272,261,540.033655879,blue,incongruent,correct,j,0.77230687048
142272,262,542.054286484,blue,neutral,correct,j,0.495613228537
142272,263,544.076057141,yellow,congruent,correct,k,0.538206490368
142272,264,546.096467159,blue,neutral,correct,j,0.437456880019
142272,265,548.11650811,red,congruent,correct,d,0.865666617319
142272,266,550.138269381,blue,incongruent,correct,j,0.81173085366
142272,267,552.161687824,green,congruent,correct,f,0.580385032365
142272,268,554.185604614,green,congruent,correct,f,0.652543721582
142272,270,558.66356921,yellow,neutral,correct,k,0.558577681673
142272,271,560.68684728,yellow,incongruent,correct,k,0.839032815347
142272,272,562.706852392,red,congruent,correct,d,0.659048252142
142272,273,564.730631368,red,incongruent,correct,d,0.539294063237
142272,274,566.752671679,yellow,congruent,correct,k,0.517249485973
142272,275,568.776093962,green,congruent,correct,f,0.653859561018
142272,276,570.79689822,green,neutral,correct,f,0.617001976745
142272,277,572.817054371,green,incongruent,correct,f,0.564959758951
142272,278,574.837797616,green,neutral,correct,f,0.528300574595
142272,279,576.857666621,red,congruent,correct,d,0.620258295356
142272,280,578.881306931,blue,incongruent,correct,j,0.62862138512
142272,281,580.901128149,red,congruent,correct,d,0.752910185423
142272,282,582.922118433,red,neutral,correct,d,0.619764215568
142272,283,584.945950743,green,congruent,correct,f,0.692058584718
142272,284,586.966616761,red,neutral,correct,d,0.671336246902
142272,285,588.987155205,blue,neutral,correct,j,0.666737635525
142272,286,591.011229009,green,congruent,correct,f,0.738635631518
142272,287,593.033503559,green,incongruent,correct,f,0.556414055929
142272,288,595.057135762,yellow,incongruent,correct,k,0.677164511078
142272,289,597.081035912,green,congruent,correct,f,0.748876907142
142272,290,599.10113745,yellow,incongruent,correct,k,0.45678529844
142272,291,601.121640055,yellow,neutral,correct,k,0.596265558925
142272,292,603.142277486,green,neutral,correct,f,0.799990698673
142272,293,605.166187449,red,incongruent,correct,d,0.455783058867
142272,294,607.186293681,blue,congruent,correct,j,0.515655033319
142272,295,609.21043447,blue,incongruent,correct,j,0.763480420916
142272,296,611.231196915,yellow,neutral,correct,k,0.550924138275
142272,297,613.251904746,green,neutral,correct,f,0.57800722005
142272,298,615.273734283,yellow,congruent,correct,k,0.604149075567
142272,299,617.293911768,red,congruent,correct,d,0.711993296216
142272,300,619.314195493,red,congruent,correct,d,0.531889693062
142272,301,621.334139591,red,congruent,correct,d,0.479759581969
142272,302,623.354929769,blue,neutral,correct,j,0.634966769081
142272,304,627.917771982,blue,incongruent,incorrect,k,0.632122610295
142272,306,631.95284482,yellow,neutral,correct,k,0.805353896387
142272,307,633.973693878,red,neutral,correct,d,0.608175100511
142272,308,635.993792429,blue,congruent,correct,j,0.620047095443
142272,309,638.016903246,red,incongruent,correct,d,0.949170368352
142272,310,640.037334171,yellow,neutral,correct,k,0.59254972051
142272,311,642.060671547,yellow,incongruent,correct,k,0.601277610127
142272,312,644.081273565,green,neutral,correct,f,0.708603430998
142272,313,646.103244756,yellow,congruent,correct,k,0.622765387619
142272,314,648.126648266,green,congruent,correct,f,0.61558075068
142272,315,650.147833537,red,neutral,correct,d,0.530290973744
142272,316,652.171094967,yellow,incongruent,correct,k,0.50700010368
142272,317,654.191902211,green,neutral,correct,f,0.838039962437
142272,318,656.214331215,yellow,congruent,correct,k,0.495562028562
142272,319,658.23429366,red,incongruent,correct,d,0.66759779516
142272,320,660.256158611,red,incongruent,correct,d,0.581959431693
142272,321,662.279673054,red,incongruent,correct,d,0.510444582214
142272,322,664.300302805,yellow,neutral,correct,k,0.457869884638
142272,323,666.320795596,yellow,neutral,correct,k,0.613034831775
142272,324,668.342737774,yellow,congruent,correct,k,0.399155029692
142272,325,670.366208697,green,congruent,correct,f,0.711992442884
142272,326,672.386137435,red,congruent,correct,d,0.451752767251
142272,327,674.406897746,yellow,neutral,correct,k,0.462971109133
142272,328,676.430833736,green,congruent,correct,f,0.599297450965
142272,330,681.617414137,yellow,incongruent,correct,k,0.932428828826
142272,331,683.637837808,green,neutral,correct,f,0.608026620575
142272,332,685.659547879,yellow,congruent,correct,k,0.58630289651
142272,333,687.679969843,yellow,neutral,correct,k,0.517899725695
142272,334,689.700090581,green,incongruent,correct,f,0.81810866428
142272,335,691.720442146,red,congruent,correct,d,0.669411127717
142272,336,693.740562031,red,congruent,incorrect,f,0.60148497003
142272,337,695.763972367,red,incongruent,correct,d,1.08994172163
142272,338,697.785809585,red,incongruent,correct,d,0.492085550046
142272,339,699.806669736,blue,neutral,incorrect,k,0.583353351103
142272,340,701.828606793,yellow,congruent,correct,k,0.54525544736
142272,341,703.852245396,yellow,incongruent,correct,k,0.505765757545
142272,342,705.874183307,yellow,congruent,correct,k,0.451775380578
142272,343,707.89767471,green,congruent,correct,f,0.572178955867
142272,344,709.918318115,blue,congruent,correct,j,0.679834163275
142272,345,711.942795118,green,congruent,correct,f,0.575052981309
142272,346,713.962996922,blue,congruent,correct,j,0.602849876115
142272,347,715.983526407,green,neutral,correct,f,0.598336171381
142272,348,718.00714965,yellow,incongruent,correct,k,0.57471932812
142272,349,720.028315721,green,neutral,correct,f,0.665787875929
142272,350,722.048988992,blue,neutral,correct,j,0.805242109767
142272,351,724.07075453,blue,incongruent,correct,j,0.447141782548
142272,352,726.091863001,yellow,neutral,correct,k,0.505983784111
142272,353,728.111688059,blue,congruent,correct,j,0.454273512842
142272,354,730.132078877,red,congruent,correct,d,0.5458544871
142272,355,732.155627454,green,congruent,correct,f,0.522270070498
142272,356,734.176201311,red,neutral,correct,d,0.629772957967
142272,357,736.196351916,blue,congruent,correct,j,0.721676492081
142272,358,738.216953934,red,neutral,correct,d,0.716962254097
142272,359,740.240592964,green,congruent,correct,f,0.62925413152
142272,360,742.262338875,green,incongruent,correct,f,0.591841027475
142272,361,744.284203399,green,incongruent,correct,f,0.650783722333
142272,363,748.924602486,red,incongruent,correct,d,0.841214787746
142272,364,750.944949357,yellow,incongruent,correct,k,0.75727669023
142272,365,752.965037668,green,incongruent,correct,f,0.688898692737
142272,366,754.986993072,yellow,congruent,correct,k,0.571168182963
142272,367,757.009013756,blue,incongruent,correct,j,0.837097456169
142272,368,759.028907934,red,congruent,correct,d,0.688950746044
142272,369,761.049099499,yellow,incongruent,correct,k,0.508740902937
142272,370,763.072374156,red,incongruent,correct,d,0.741629976903
142272,371,765.096127532,yellow,incongruent,correct,k,0.621695308073
142272,372,767.119613389,red,incongruent,correct,d,0.966219107751
142272,373,769.143010499,yellow,incongruent,correct,k,0.718982519902
142272,374,771.166651662,yellow,incongruent,correct,k,0.535233478302
142272,375,773.187147867,red,neutral,correct,d,0.546941633307
142272,376,775.210719483,yellow,incongruent,correct,k,0.491077337138
142272,377,777.232119368,yellow,congruent,correct,k,0.597696598314
142272,378,779.252265279,blue,incongruent,correct,j,0.401813161894
142272,379,781.272263137,red,congruent,correct,d,0.605718781553
142272,380,783.295620567,red,incongruent,correct,d,0.66233401074
142272,381,785.315747279,blue,incongruent,correct,j,0.62603749289
142272,382,787.33624135,red,neutral,correct,d,0.653566867812
142272,383,789.356310888,blue,congruent,correct,j,0.585862150037
142272,384,791.379989598,red,incongruent,correct,d,0.545836567107
142272,386,795.794566914,green,congruent,incorrect,k,0.739250457918
142272,387,797.814854906,yellow,neutral,correct,k,0.847075051912
142272,388,799.838120602,green,congruent,correct,f,0.919733794246
142272,389,801.859798246,yellow,congruent,incorrect,j,0.610123259677
142272,390,803.882216584,green,neutral,correct,f,1.09972689078
142272,391,805.902836521,yellow,neutral,correct,k,0.599296170963
142272,392,807.92261038,yellow,incongruent,correct,k,0.49955989352
142272,393,809.943546051,red,neutral,correct,d,0.590279428143
142272,394,811.967202147,green,congruent,correct,f,0.64662927077
